"","subject_id","condition","n_block","n_trialIdx","f_timing_condition","n_scheduled_delay","n_trial_start_time","n_rewarded_time_fin","n_sell_time_fin","n_time_waited_fin","RT_fin","n_trial_earnings_fin","n_total_earnings_fin","keypress_times"
"1","R_0824RUM8DfAU3NT","standard","1","1","LP","1.25738905644119","0.001","1.274","NA","2.281","NA","0","0",""
"2","R_0824RUM8DfAU3NT","standard","1","2","LP","30","3.298","33.318","33.699","30.401","0.381","3","3",""
"3","R_0824RUM8DfAU3NT","standard","1","3","LP","30","34.706","64.721","65.02","30.314","0.299","3","6",""
"4","R_0824RUM8DfAU3NT","standard","1","4","LP","30","66.023","96.024","96.299","30.276","0.275","3","9",""
"5","R_0824RUM8DfAU3NT","standard","1","5","LP","8.51632916846187","97.307","105.832","106.411","9.104","0.579","3","12",""
"6","R_0824RUM8DfAU3NT","standard","1","6","LP","3.49090909090909","107.418","110.919","111.307","3.889","0.388","3","15",""
"7","R_0824RUM8DfAU3NT","standard","1","7","LP","5.5010771219302","112.321","117.825","118.235","5.914","0.41","3","18",""
"8","R_0824RUM8DfAU3NT","standard","1","8","LP","0.661783713916415","119.247","119.918","120.411","1.164","0.493","3","21",""
"9","R_0824RUM8DfAU3NT","standard","1","9","LP","0.264713485566566","121.418","121.689","122.091","0.673","0.402","3","24",""
"10","R_0824RUM8DfAU3NT","standard","1","10","LP","30","123.098","153.105","153.395","30.297","0.29","3","27",""
"11","R_0824RUM8DfAU3NT","standard","1","11","LP","5.5010771219302","154.403","159.906","160.491","6.088","0.585","3","30",""
"12","R_0824RUM8DfAU3NT","standard","1","12","LP","19.8235243429556","161.504","181.333","181.747","20.243","0.414","3","33",""
"13","R_0824RUM8DfAU3NT","standard","1","13","LP","0.264713485566566","182.768","183.033","183.595","0.827","0.562","3","36",""
"14","R_0824RUM8DfAU3NT","standard","1","14","LP","2.15079707022835","184.603","186.762","187.299","2.696","0.537","3","39",""
"15","R_0824RUM8DfAU3NT","standard","1","15","LP","13.0392072382594","188.321","201.374","201.723","13.402","0.349","3","42",""
"16","R_0824RUM8DfAU3NT","standard","1","16","LP","1.25738905644119","202.734","203.993","204.547","1.813","0.554","3","45",""
"17","R_0824RUM8DfAU3NT","standard","1","17","LP","13.0392072382594","205.561","218.601","219.011","13.45","0.41","3","48",""
"18","R_0824RUM8DfAU3NT","standard","1","18","LP","0.264713485566566","220.012","220.282","220.722","0.71","0.44","3","51",""
"19","R_0824RUM8DfAU3NT","standard","1","19","LP","19.8235243429556","221.729","241.565","241.883","20.154","0.318","3","54",""
"20","R_0824RUM8DfAU3NT","standard","1","20","LP","19.8235243429556","242.889","262.718","263.099","20.21","0.381","3","57",""
"21","R_0824RUM8DfAU3NT","standard","1","21","LP","1.25738905644119","264.106","265.37","265.826","1.72","0.456","3","60",""
"22","R_0824RUM8DfAU3NT","standard","1","22","LP","2.15079707022835","266.834","268.994","269.331","2.497","0.337","3","63",""
"23","R_0824RUM8DfAU3NT","standard","1","23","LP","0.264713485566566","270.338","270.602","270.995","0.657","0.393","3","66",""
"24","R_0824RUM8DfAU3NT","standard","1","24","LP","19.8235243429556","272.007","291.846","292.187","20.18","0.341","3","69",""
"25","R_0824RUM8DfAU3NT","standard","1","25","LP","1.25738905644119","293.203","294.466","294.859","1.656","0.393","3","72",""
"26","R_0824RUM8DfAU3NT","standard","1","26","LP","5.5010771219302","295.866","301.369","301.747","5.881","0.378","3","75",""
"27","R_0824RUM8DfAU3NT","standard","1","27","LP","30","302.753","332.761","333.091","30.338","0.33","3","78",""
"28","R_0824RUM8DfAU3NT","standard","1","28","LP","19.8235243429556","334.098","353.932","354.355","20.257","0.423","3","81",""
"29","R_0824RUM8DfAU3NT","standard","1","29","LP","5.5010771219302","355.362","360.872","361.226","5.864","0.354","3","84",""
"30","R_0824RUM8DfAU3NT","standard","1","30","LP","5.5010771219302","362.246","367.755","368.131","5.885","0.376","3","87",""
"31","R_0824RUM8DfAU3NT","standard","1","31","LP","0.264713485566566","369.138","369.411","369.811","0.673","0.4","3","90",""
"32","R_0824RUM8DfAU3NT","standard","1","32","LP","3.49090909090909","370.821","374.32","374.746","3.925","0.426","3","93",""
"33","R_0824RUM8DfAU3NT","standard","1","33","LP","1.25738905644119","375.753","377.015","377.394","1.641","0.379","3","96",""
"34","R_0824RUM8DfAU3NT","standard","1","34","LP","0.661783713916415","378.401","379.069","379.459","1.058","0.39","3","99",""
"35","R_0824RUM8DfAU3NT","standard","1","35","LP","30","380.472","410.473","410.787","30.315","0.314","3","102",""
"36","R_0824RUM8DfAU3NT","standard","1","36","LP","13.0392072382594","411.793","424.834","425.283","13.49","0.449","3","105",""
"37","R_0824RUM8DfAU3NT","standard","1","37","LP","1.25738905644119","426.303","427.573","428.083","1.78","0.51","3","108",""
"38","R_0824RUM8DfAU3NT","standard","1","38","LP","0.264713485566566","429.089","429.362","429.738","0.649","0.376","3","111",""
"39","R_0824RUM8DfAU3NT","standard","1","39","LP","13.0392072382594","430.746","443.8","444.147","13.401","0.347","3","114",""
"40","R_0824RUM8DfAU3NT","standard","1","40","LP","1.25738905644119","445.154","446.422","446.754","1.6","0.332","3","117",""
"41","R_0824RUM8DfAU3NT","standard","1","41","LP","1.25738905644119","447.762","449.025","449.45","1.688","0.425","3","120",""
"42","R_0824RUM8DfAU3NT","standard","1","42","LP","0.661783713916415","450.457","451.132","451.53","1.073","0.398","3","123",""
"43","R_0824RUM8DfAU3NT","standard","1","43","LP","8.51632916846187","452.533","461.07","461.434","8.901","0.364","3","126",""
"44","R_0824RUM8DfAU3NT","standard","1","44","LP","1.25738905644119","462.442","463.705","464.09","1.648","0.385","3","129",""
"45","R_0824RUM8DfAU3NT","standard","1","45","LP","8.51632916846187","465.097","473.616","NA","9.521","NA","0","129",""
"46","R_0824RUM8DfAU3NT","standard","1","46","LP","19.8235243429556","475.623","495.45","495.827","20.204","0.377","3","132",""
"47","R_0824RUM8DfAU3NT","standard","1","47","LP","3.49090909090909","496.837","500.33","500.73","3.893","0.4","3","135",""
"48","R_0824RUM8DfAU3NT","standard","1","48","LP","30","501.737","531.746","532.075","30.338","0.329","3","138",""
"49","R_0824RUM8DfAU3NT","standard","1","49","LP","1.25738905644119","533.088","534.355","534.714","1.626","0.359","3","141",""
"50","R_0824RUM8DfAU3NT","standard","1","50","LP","1.25738905644119","535.719","536.991","537.378","1.659","0.387","3","144",""
"51","R_0824RUM8DfAU3NT","standard","1","51","LP","19.8235243429556","538.386","558.211","558.65","20.264","0.439","3","147",""
"52","R_0824RUM8DfAU3NT","standard","1","52","LP","30","559.66","589.666","590.058","30.398","0.392","3","150",""
"53","R_0824RUM8DfAU3NT","standard","1","53","LP","2.15079707022835","591.065","593.217","593.658","2.593","0.441","3","153",""
"54","R_0824RUM8DfAU3NT","standard","1","54","LP","0.264713485566566","594.666","594.95","595.554","0.888","0.604","3","156",""
"55","R_0824RUM8DfAU3NT","standard","1","55","LP","5.5010771219302","596.568","602.074","602.994","6.426","0.92","3","159",""
"56","R_0824RUM8DfAU3NT","standard","1","56","LP","0.661783713916415","604.002","604.665","605.13","1.128","0.465","3","162",""
"57","R_0824RUM8DfAU3NT","standard","1","57","LP","30","606.138","636.145","636.498","30.36","0.353","3","165",""
"58","R_0824RUM8DfAU3NT","standard","1","58","LP","1.25738905644119","637.506","638.769","639.218","1.712","0.449","3","168",""
"59","R_0824RUM8DfAU3NT","standard","1","59","LP","3.49090909090909","640.222","643.722","644.154","3.932","0.432","3","171",""
"60","R_0824RUM8DfAU3NT","standard","1","60","LP","0.661783713916415","645.163","645.826","646.194","1.031","0.368","3","174",""
"61","R_0824RUM8DfAU3NT","standard","1","61","LP","13.0392072382594","647.216","660.269","660.674","13.458","0.405","3","177",""
"62","R_0824RUM8DfAU3NT","standard","1","62","LP","19.8235243429556","661.689","681.52","681.995","20.306","0.475","3","180",""
"63","R_0824RUM8DfAU3NT","standard","1","63","LP","0.661783713916415","683.001","683.666","684.034","1.033","0.368","3","183",""
"64","R_0824RUM8DfAU3NT","standard","1","64","LP","0.264713485566566","685.054","685.318","685.618","0.564","0.3","3","186",""
"65","R_0824RUM8DfAU3NT","standard","1","65","LP","13.0392072382594","686.624","699.675","700.066","13.442","0.391","3","189",""
"66","R_0824RUM8DfAU3NT","standard","1","66","LP","13.0392072382594","701.079","714.126","714.482","13.403","0.356","3","192",""
"67","R_0824RUM8DfAU3NT","standard","1","67","LP","2.15079707022835","715.489","717.642","718.066","2.577","0.424","3","195",""
"68","R_0824RUM8DfAU3NT","standard","1","68","LP","3.49090909090909","719.078","722.57","722.93","3.852","0.36","3","198",""
"69","R_0824RUM8DfAU3NT","standard","1","69","LP","0.661783713916415","723.937","724.602","725.426","1.489","0.824","3","201",""
"70","R_0824RUM8DfAU3NT","standard","1","70","LP","2.15079707022835","726.427","728.585","728.946","2.519","0.361","3","204",""
"71","R_0824RUM8DfAU3NT","standard","1","71","LP","0.264713485566566","729.953","730.226","730.594","0.641","0.368","3","207",""
"72","R_0824RUM8DfAU3NT","standard","1","72","LP","5.5010771219302","731.609","737.114","737.442","5.833","0.328","3","210",""
"73","R_0824RUM8DfAU3NT","standard","1","73","LP","0.661783713916415","738.455","739.134","739.481","1.026","0.347","3","213",""
"74","R_0824RUM8DfAU3NT","standard","1","74","LP","5.5010771219302","740.49","746.001","746.346","5.856","0.345","3","216",""
"75","R_0824RUM8DfAU3NT","standard","1","75","LP","8.51632916846187","747.354","755.873","756.258","8.904","0.385","3","219",""
"76","R_0824RUM8DfAU3NT","standard","1","76","LP","8.51632916846187","757.266","765.786","766.121","8.855","0.335","3","222",""
"77","R_0824RUM8DfAU3NT","standard","1","77","LP","5.5010771219302","767.144","772.649","773.034","5.89","0.385","3","225",""
"78","R_0824RUM8DfAU3NT","standard","1","78","LP","2.15079707022835","774.05","776.201","776.562","2.512","0.361","3","228",""
"79","R_0824RUM8DfAU3NT","standard","1","79","LP","1.25738905644119","777.569","778.833","779.273","1.704","0.44","3","231",""
"80","R_0824RUM8DfAU3NT","standard","1","80","LP","5.5010771219302","780.289","785.793","786.058","5.769","0.265","3","234",""
"81","R_0824RUM8DfAU3NT","standard","1","81","LP","0.661783713916415","787.072","787.737","788.29","1.218","0.553","3","237",""
"82","R_0824RUM8DfAU3NT","standard","1","82","LP","3.49090909090909","789.306","792.802","793.153","3.847","0.351","3","240",""
"83","R_0824RUM8DfAU3NT","standard","1","83","LP","19.8235243429556","794.162","813.993","814.37","20.208","0.377","3","243",""
"84","R_0824RUM8DfAU3NT","standard","1","84","LP","1.25738905644119","815.378","816.653","NA","2.291","NA","0","243",""
"85","R_0824RUM8DfAU3NT","standard","1","85","LP","5.5010771219302","818.673","824.178","824.514","5.841","0.336","3","246",""
"86","R_0824RUM8DfAU3NT","standard","1","86","LP","8.51632916846187","825.518","834.036","834.369","8.851","0.333","3","249",""
"87","R_0824RUM8DfAU3NT","standard","1","87","LP","30","835.378","865.385","865.738","30.36","0.353","3","252",""
"88","R_0824RUM8DfAU3NT","standard","1","88","LP","8.51632916846187","866.746","875.266","875.842","9.096","0.576","3","255",""
"89","R_0824RUM8DfAU3NT","standard","1","89","LP","8.51632916846187","876.85","885.37","885.737","8.887","0.367","3","258",""
"90","R_0824RUM8DfAU3NT","standard","2","1","LP","0.264713485566566","0","0.269","1.237","1.237","0.968","3","261",NA
"91","R_0824RUM8DfAU3NT","standard","2","2","LP","3.49090909090909","2.246","5.754","6.142","3.896","0.388","3","264",NA
"92","R_0824RUM8DfAU3NT","standard","2","3","LP","0.264713485566566","7.158","7.437","7.845","0.687","0.408","3","267",NA
"93","R_0824RUM8DfAU3NT","standard","2","4","LP","30","8.854","NaN","35.278","26.424","NaN","0","267",NA
"94","R_0824RUM8DfAU3NT","standard","2","5","LP","3.49090909090909","36.285","39.782","40.189","3.904","0.407","3","270",NA
"95","R_0824RUM8DfAU3NT","standard","2","6","LP","19.8235243429556","41.189","NaN","57.157","15.968","NaN","0","270",NA
"96","R_0824RUM8DfAU3NT","standard","2","7","LP","30","58.166","NaN","73.981","15.815","NaN","0","270",NA
"97","R_0824RUM8DfAU3NT","standard","2","8","LP","19.8235243429556","74.989","94.82","95.237","20.248","0.417","3","273",NA
"98","R_0824RUM8DfAU3NT","standard","2","9","LP","19.8235243429556","96.246","116.078","116.549","20.303","0.471","3","276",NA
"99","R_0824RUM8DfAU3NT","standard","2","10","LP","2.15079707022835","117.558","119.708","120.213","2.655","0.505","3","279",NA
"100","R_0824RUM8DfAU3NT","standard","2","11","LP","8.51632916846187","121.217","129.756","130.109","8.892","0.353","3","282",NA
"101","R_0824RUM8DfAU3NT","standard","2","12","LP","3.49090909090909","131.113","134.603","135.165","4.052","0.562","3","285",NA
"102","R_0824RUM8DfAU3NT","standard","2","13","LP","5.5010771219302","136.178","141.687","142.109","5.931","0.422","3","288",NA
"103","R_0824RUM8DfAU3NT","standard","2","14","LP","2.15079707022835","143.109","145.261","145.605","2.496","0.344","3","291",NA
"104","R_0824RUM8DfAU3NT","standard","2","15","LP","3.49090909090909","146.619","150.112","150.557","3.938","0.445","3","294",NA
"105","R_0824RUM8DfAU3NT","standard","2","16","LP","13.0392072382594","151.567","164.606","164.933","13.366","0.327","3","297",NA
"106","R_0824RUM8DfAU3NT","standard","2","17","LP","2.15079707022835","165.955","168.112","168.428","2.473","0.316","3","300",NA
"107","R_0824RUM8DfAU3NT","standard","2","18","LP","19.8235243429556","169.445","189.269","189.653","20.208","0.384","3","303",NA
"108","R_0824RUM8DfAU3NT","standard","2","19","LP","2.15079707022835","190.662","192.819","193.252","2.59","0.433","3","306",NA
"109","R_0824RUM8DfAU3NT","standard","2","20","LP","2.15079707022835","194.261","196.413","196.74","2.479","0.327","3","309",NA
"110","R_0824RUM8DfAU3NT","standard","2","21","LP","5.5010771219302","197.755","203.277","203.661","5.906","0.384","3","312",NA
"111","R_0824RUM8DfAU3NT","standard","2","22","LP","2.15079707022835","204.67","206.822","207.244","2.574","0.422","3","315",NA
"112","R_0824RUM8DfAU3NT","standard","2","23","LP","0.661783713916415","208.26","208.939","209.372","1.112","0.433","3","318",NA
"113","R_0824RUM8DfAU3NT","standard","2","24","LP","0.264713485566566","210.375","210.646","211.029","0.654","0.383","3","321",NA
"114","R_0824RUM8DfAU3NT","standard","2","25","LP","0.264713485566566","212.029","212.302","212.644","0.615","0.342","3","324",NA
"115","R_0824RUM8DfAU3NT","standard","2","26","LP","13.0392072382594","213.646","226.686","227.069","13.423","0.383","3","327",NA
"116","R_0824RUM8DfAU3NT","standard","2","27","LP","3.49090909090909","228.092","231.59","231.996","3.904","0.406","3","330",NA
"117","R_0824RUM8DfAU3NT","standard","2","28","LP","8.51632916846187","232.997","241.516","241.877","8.88","0.361","3","333",NA
"118","R_0824RUM8DfAU3NT","standard","2","29","LP","5.5010771219302","242.886","248.392","248.772","5.886","0.38","3","336",NA
"119","R_0824RUM8DfAU3NT","standard","2","30","LP","13.0392072382594","249.777","262.821",NA,"14.045",NA,"0","336",NA
"120","R_0824RUM8DfAU3NT","standard","2","31","LP","30","264.83","294.838","295.101","30.271","0.263","3","339",NA
"121","R_0824RUM8DfAU3NT","standard","2","32","LP","5.5010771219302","296.102","301.608","302.124","6.022","0.516","3","342",NA
"122","R_0824RUM8DfAU3NT","standard","2","33","LP","0.264713485566566","303.126","303.399",NA,"1.293",NA,"0","342",NA
"123","R_0824RUM8DfAU3NT","standard","2","34","LP","19.8235243429556","305.42","325.246","325.693","20.273","0.447","3","345",NA
"124","R_0824RUM8DfAU3NT","standard","2","35","LP","0.264713485566566","326.708","326.974","327.324","0.616","0.35","3","348",NA
"125","R_0824RUM8DfAU3NT","standard","2","36","LP","30","328.325","358.333","358.581","30.256","0.248","3","351",NA
"126","R_0824RUM8DfAU3NT","standard","2","37","LP","19.8235243429556","359.582","379.406","379.909","20.327","0.503","3","354",NA
"127","R_0824RUM8DfAU3NT","standard","2","38","LP","19.8235243429556","380.911","400.737","401.076","20.165","0.339","3","357",NA
"128","R_0824RUM8DfAU3NT","standard","2","39","LP","1.25738905644119","402.078","403.35","403.708","1.63","0.358","3","360",NA
"129","R_0824RUM8DfAU3NT","standard","2","40","LP","5.5010771219302","404.709","410.216","410.652","5.943","0.436","3","363",NA
"130","R_0824RUM8DfAU3NT","standard","2","41","LP","1.25738905644119","411.654","412.916","413.373","1.719","0.457","3","366",NA
"131","R_0824RUM8DfAU3NT","standard","2","42","LP","8.51632916846187","414.379","422.902","423.276","8.897","0.374","3","369",NA
"132","R_0824RUM8DfAU3NT","standard","2","43","LP","5.5010771219302","424.278","429.781","430.077","5.799","0.296","3","372",NA
"133","R_0824RUM8DfAU3NT","standard","2","44","LP","19.8235243429556","431.078","450.902","451.252","20.174","0.35","3","375",NA
"134","R_0824RUM8DfAU3NT","standard","2","45","LP","1.25738905644119","452.254","453.513","453.956","1.702","0.443","3","378",NA
"135","R_0824RUM8DfAU3NT","standard","2","46","LP","8.51632916846187","454.972","463.494","463.908","8.936","0.414","3","381",NA
"136","R_0824RUM8DfAU3NT","standard","2","47","LP","30","464.911","494.922","495.221","30.31","0.299","3","384",NA
"137","R_0824RUM8DfAU3NT","standard","2","48","LP","30","496.222","NaN","519.756","23.534","NaN","0","384",NA
"138","R_0824RUM8DfAU3NT","standard","2","49","LP","30","520.758","550.769","551.116","30.358","0.347","3","387",NA
"139","R_0824RUM8DfAU3NT","standard","2","50","LP","2.15079707022835","552.118","554.27","554.644","2.526","0.374","3","390",NA
"140","R_0824RUM8DfAU3NT","standard","2","51","LP","3.49090909090909","555.646","559.141","559.468","3.822","0.327","3","393",NA
"141","R_0824RUM8DfAU3NT","standard","2","52","LP","30","560.47","590.477","590.78","30.31","0.303","3","396",NA
"142","R_0824RUM8DfAU3NT","standard","2","53","LP","0.264713485566566","591.782","592.062","592.428","0.646","0.366","3","399",NA
"143","R_0824RUM8DfAU3NT","standard","2","54","LP","2.15079707022835","593.435","595.592","595.948","2.513","0.356","3","402",NA
"144","R_0824RUM8DfAU3NT","standard","2","55","LP","0.661783713916415","596.964","597.626","597.972","1.008","0.346","3","405",NA
