"","subject_id","condition","n_block","n_trialIdx","f_timing_condition","n_scheduled_delay","n_trial_start_time","n_rewarded_time_fin","n_sell_time_fin","n_time_waited_fin","RT_fin","n_trial_earnings_fin","n_total_earnings_fin","keypress_times"
"1","R_0OqURDLSAvz32Cd","standard","1","1","LP","13.0392072382594","0.002","13.049","13.353","13.351","0.304","3","3",""
"2","R_0OqURDLSAvz32Cd","standard","1","2","LP","1.25738905644119","14.38","15.644","16.408","2.028","0.764","3","6",""
"3","R_0OqURDLSAvz32Cd","standard","1","3","LP","1.25738905644119","17.426","18.693","19.019","1.593","0.326","3","9",""
"4","R_0OqURDLSAvz32Cd","standard","1","4","LP","8.51632916846187","20.025","28.551","28.71","8.685","0.159","3","12",""
"5","R_0OqURDLSAvz32Cd","standard","1","5","LP","5.5010771219302","29.716","35.23","35.493","5.777","0.263","3","15",""
"6","R_0OqURDLSAvz32Cd","standard","1","6","LP","0.264713485566566","36.509","36.778","37.407","0.898","0.629","3","18",""
"7","R_0OqURDLSAvz32Cd","standard","1","7","LP","5.5010771219302","38.411","43.928","44.265","5.854","0.337","3","18","1450"
"8","R_0OqURDLSAvz32Cd","standard","1","8","LP","0.264713485566566","45.287","45.553","45.961","0.674","0.408","3","21",""
"9","R_0OqURDLSAvz32Cd","standard","1","9","LP","0.661783713916415","46.969","47.636","47.957","0.988","0.321","3","24",""
"10","R_0OqURDLSAvz32Cd","standard","1","10","LP","0.661783713916415","48.961","49.635","49.942","0.981","0.307","3","27",""
"11","R_0OqURDLSAvz32Cd","standard","1","11","LP","30","50.947","80.972","81.27","30.323","0.298","3","30",""
"12","R_0OqURDLSAvz32Cd","standard","1","12","LP","19.8235243429556","82.288","102.119","102.421","20.133","0.302","3","33",""
"13","R_0OqURDLSAvz32Cd","standard","1","13","LP","13.0392072382594","103.435","116.49","116.799","13.364","0.309","3","33","613"
"14","R_0OqURDLSAvz32Cd","standard","1","14","LP","13.0392072382594","117.806","130.846","131.151","13.345","0.305","3","36",""
"15","R_0OqURDLSAvz32Cd","standard","1","15","LP","30","132.162","162.185","162.492","30.33","0.307","3","39",""
"16","R_0OqURDLSAvz32Cd","standard","1","16","LP","30","163.497","193.507","193.832","30.335","0.325","3","42",""
"17","R_0OqURDLSAvz32Cd","standard","1","17","LP","2.15079707022835","194.841","197.001","197.404","2.563","0.403","3","45",""
"18","R_0OqURDLSAvz32Cd","standard","1","18","LP","8.51632916846187","198.419","206.946","207.502","9.083","0.556","3","48",""
"19","R_0OqURDLSAvz32Cd","standard","1","19","LP","8.51632916846187","208.51","217.033","217.412","8.902","0.379","3","51",""
"20","R_0OqURDLSAvz32Cd","standard","1","20","LP","1.25738905644119","218.418","219.683","220.138","1.72","0.455","3","54",""
"21","R_0OqURDLSAvz32Cd","standard","1","21","LP","1.25738905644119","221.15","222.413","222.78","1.63","0.367","3","57",""
"22","R_0OqURDLSAvz32Cd","standard","1","22","LP","0.661783713916415","223.797","224.464","224.778","0.981","0.314","3","60",""
"23","R_0OqURDLSAvz32Cd","standard","1","23","LP","19.8235243429556","225.794","245.633","245.983","20.189","0.35","3","63",""
"24","R_0OqURDLSAvz32Cd","standard","1","24","LP","1.25738905644119","246.995","248.257","248.604","1.609","0.347","3","66",""
"25","R_0OqURDLSAvz32Cd","standard","1","25","LP","19.8235243429556","249.61","269.441","269.766","20.156","0.325","3","69",""
"26","R_0OqURDLSAvz32Cd","standard","1","26","LP","13.0392072382594","270.775","283.828","284.169","13.394","0.341","3","72",""
"27","R_0OqURDLSAvz32Cd","standard","1","27","LP","8.51632916846187","285.194","293.719","294.151","8.957","0.432","3","72","455"
"28","R_0OqURDLSAvz32Cd","standard","1","28","LP","13.0392072382594","295.154","308.208","308.565","13.411","0.357","3","75",""
"29","R_0OqURDLSAvz32Cd","standard","1","29","LP","0.661783713916415","309.569","310.233","NA","1.666","NA","0","75",""
"30","R_0OqURDLSAvz32Cd","standard","1","30","LP","0.264713485566566","312.254","312.519","313.05","0.796","0.531","3","78",""
"31","R_0OqURDLSAvz32Cd","standard","1","31","LP","5.5010771219302","314.054","319.562","319.89","5.836","0.328","3","81",""
"32","R_0OqURDLSAvz32Cd","standard","1","32","LP","2.15079707022835","320.911","323.075","323.46","2.549","0.385","3","84",""
"33","R_0OqURDLSAvz32Cd","standard","1","33","LP","0.264713485566566","324.477","324.744","325.328","0.851","0.584","3","87",""
"34","R_0OqURDLSAvz32Cd","standard","1","34","LP","5.5010771219302","326.33","331.838","332.286","5.956","0.448","3","90",""
"35","R_0OqURDLSAvz32Cd","standard","1","35","LP","3.49090909090909","333.301","336.798","337.167","3.866","0.369","3","93",""
"36","R_0OqURDLSAvz32Cd","standard","1","36","LP","2.15079707022835","338.179","340.347","340.687","2.508","0.34","3","96",""
"37","R_0OqURDLSAvz32Cd","standard","1","37","LP","8.51632916846187","341.694","350.22","350.62","8.926","0.4","3","99",""
"38","R_0OqURDLSAvz32Cd","standard","1","38","LP","5.5010771219302","351.622","357.132","357.602","5.98","0.47","3","102",""
"39","R_0OqURDLSAvz32Cd","standard","1","39","LP","5.5010771219302","358.616","364.126","364.584","5.968","0.458","3","105",""
"40","R_0OqURDLSAvz32Cd","standard","1","40","LP","5.5010771219302","365.589","371.097","371.48","5.891","0.383","3","108",""
"41","R_0OqURDLSAvz32Cd","standard","1","41","LP","13.0392072382594","372.482","385.526","385.907","13.425","0.381","3","111",""
"42","R_0OqURDLSAvz32Cd","standard","1","42","LP","0.264713485566566","386.909","387.188","387.69","0.781","0.502","3","114",""
"43","R_0OqURDLSAvz32Cd","standard","1","43","LP","1.25738905644119","388.703","389.969","390.346","1.643","0.377","3","117",""
"44","R_0OqURDLSAvz32Cd","standard","1","44","LP","0.264713485566566","391.353","391.618","392.058","0.705","0.44","3","120",""
"45","R_0OqURDLSAvz32Cd","standard","1","45","LP","2.15079707022835","393.066","395.217","395.571","2.505","0.354","3","123",""
"46","R_0OqURDLSAvz32Cd","standard","1","46","LP","3.49090909090909","396.581","400.076","400.419","3.838","0.343","3","126",""
"47","R_0OqURDLSAvz32Cd","standard","1","47","LP","30","401.433","431.451","431.791","30.358","0.34","3","129",""
"48","R_0OqURDLSAvz32Cd","standard","1","48","LP","19.8235243429556","432.8","452.634","453.038","20.238","0.404","3","132",""
"49","R_0OqURDLSAvz32Cd","standard","1","49","LP","8.51632916846187","454.053","462.573","462.97","8.917","0.397","3","135",""
"50","R_0OqURDLSAvz32Cd","standard","1","50","LP","1.25738905644119","463.986","465.257","465.728","1.742","0.471","3","138",""
"51","R_0OqURDLSAvz32Cd","standard","1","51","LP","30","466.743","496.744","497.104","30.361","0.36","3","141",""
"52","R_0OqURDLSAvz32Cd","standard","1","52","LP","1.25738905644119","498.106","499.369","499.789","1.683","0.42","3","144",""
"53","R_0OqURDLSAvz32Cd","standard","1","53","LP","19.8235243429556","500.804","520.639","521.018","20.214","0.379","3","147",""
"54","R_0OqURDLSAvz32Cd","standard","1","54","LP","0.661783713916415","522.022","522.704","523.165","1.143","0.461","3","150",""
"55","R_0OqURDLSAvz32Cd","standard","1","55","LP","3.49090909090909","524.169","527.665","528.07","3.901","0.405","3","153",""
"56","R_0OqURDLSAvz32Cd","standard","1","56","LP","0.661783713916415","529.079","529.748","530.292","1.213","0.544","3","156",""
"57","R_0OqURDLSAvz32Cd","standard","1","57","LP","13.0392072382594","531.312","544.353","544.823","13.511","0.47","3","159",""
"58","R_0OqURDLSAvz32Cd","standard","1","58","LP","13.0392072382594","545.838","558.888","559.252","13.414","0.364","3","162",""
"59","R_0OqURDLSAvz32Cd","standard","1","59","LP","3.49090909090909","560.255","563.753","564.195","3.94","0.442","3","165",""
"60","R_0OqURDLSAvz32Cd","standard","1","60","LP","0.264713485566566","565.216","565.499","565.916","0.7","0.417","3","168",""
"61","R_0OqURDLSAvz32Cd","standard","1","61","LP","8.51632916846187","566.918","575.442","575.931","9.013","0.489","3","171",""
"62","R_0OqURDLSAvz32Cd","standard","1","62","LP","19.8235243429556","576.941","596.773","597.52","20.579","0.747","3","171","546"
"63","R_0OqURDLSAvz32Cd","standard","1","63","LP","2.15079707022835","598.539","600.702","601.567","3.028","0.865","3","174",""
"64","R_0OqURDLSAvz32Cd","standard","1","64","LP","3.49090909090909","602.583","606.095","606.443","3.86","0.348","3","177",""
"65","R_0OqURDLSAvz32Cd","standard","1","65","LP","0.661783713916415","607.463","608.13","608.685","1.222","0.555","3","180",""
"66","R_0OqURDLSAvz32Cd","standard","1","66","LP","19.8235243429556","609.694","629.526","629.897","20.203","0.371","3","183",""
"67","R_0OqURDLSAvz32Cd","standard","1","67","LP","0.661783713916415","630.908","631.577","632.052","1.144","0.475","3","186",""
"68","R_0OqURDLSAvz32Cd","standard","1","68","LP","2.15079707022835","633.058","635.22","635.632","2.574","0.412","3","189",""
"69","R_0OqURDLSAvz32Cd","standard","1","69","LP","3.49090909090909","636.655","640.166","640.583","3.928","0.417","3","192",""
"70","R_0OqURDLSAvz32Cd","standard","1","70","LP","2.15079707022835","641.6","643.764","644.165","2.565","0.401","3","195",""
"71","R_0OqURDLSAvz32Cd","standard","1","71","LP","0.661783713916415","645.18","645.847","646.303","1.123","0.456","3","198",""
"72","R_0OqURDLSAvz32Cd","standard","1","72","LP","1.25738905644119","647.311","648.577","648.987","1.676","0.41","3","201",""
"73","R_0OqURDLSAvz32Cd","standard","1","73","LP","8.51632916846187","650.007","658.536","658.983","8.976","0.447","3","204",""
"74","R_0OqURDLSAvz32Cd","standard","1","74","LP","19.8235243429556","659.999","679.839","680.157","20.158","0.318","3","207",""
"75","R_0OqURDLSAvz32Cd","standard","1","75","LP","1.25738905644119","681.164","682.432","682.8","1.636","0.368","3","210",""
"76","R_0OqURDLSAvz32Cd","standard","1","76","LP","19.8235243429556","683.812","703.65","704.058","20.246","0.408","3","213",""
"77","R_0OqURDLSAvz32Cd","standard","1","77","LP","0.661783713916415","705.075","705.745","706.276","1.201","0.531","3","216",""
"78","R_0OqURDLSAvz32Cd","standard","1","78","LP","13.0392072382594","707.292","720.346","720.715","13.423","0.369","3","219",""
"79","R_0OqURDLSAvz32Cd","standard","1","79","LP","19.8235243429556","721.716","741.545","741.921","20.205","0.376","3","222",""
"80","R_0OqURDLSAvz32Cd","standard","1","80","LP","8.51632916846187","742.929","751.455","751.761","8.832","0.306","3","225",""
"81","R_0OqURDLSAvz32Cd","standard","1","81","LP","8.51632916846187","752.771","761.295","761.765","8.994","0.47","3","228",""
"82","R_0OqURDLSAvz32Cd","standard","1","82","LP","5.5010771219302","762.779","768.29","768.709","5.93","0.419","3","231",""
"83","R_0OqURDLSAvz32Cd","standard","1","83","LP","0.264713485566566","769.72","770.004","770.561","0.841","0.557","3","234",""
"84","R_0OqURDLSAvz32Cd","standard","1","84","LP","1.25738905644119","771.572","772.836","773.187","1.615","0.351","3","237",""
"85","R_0OqURDLSAvz32Cd","standard","1","85","LP","13.0392072382594","774.201","787.256","787.67","13.469","0.414","3","240",""
"86","R_0OqURDLSAvz32Cd","standard","1","86","LP","30","788.686","818.695","819.045","30.359","0.35","3","243",""
"87","R_0OqURDLSAvz32Cd","standard","1","87","LP","5.5010771219302","820.046","825.557","825.998","5.952","0.441","3","246",""
"88","R_0OqURDLSAvz32Cd","standard","1","88","LP","30","827.005","857.013","857.403","30.398","0.39","3","249",""
"89","R_0OqURDLSAvz32Cd","standard","1","89","LP","13.0392072382594","858.412","871.465","871.874","13.462","0.409","3","252",""
"90","R_0OqURDLSAvz32Cd","standard","1","90","LP","0.264713485566566","872.882","873.149","873.622","0.74","0.473","3","255",""
"91","R_0OqURDLSAvz32Cd","standard","1","91","LP","8.51632916846187","874.637","883.157","883.582","8.945","0.425","3","258",""
"92","R_0OqURDLSAvz32Cd","standard","2","1","LP","2.15079707022835","0","2.163","2.69","2.69","0.527","3","261",NA
"93","R_0OqURDLSAvz32Cd","standard","2","2","LP","2.15079707022835","3.708","5.87","6.274","2.566","0.404","3","264",NA
"94","R_0OqURDLSAvz32Cd","standard","2","3","LP","30","7.29","NaN","22.432","15.142","NaN","0","264",NA
"95","R_0OqURDLSAvz32Cd","standard","2","4","LP","13.0392072382594","23.441","36.498","36.969","13.528","0.471","3","267",NA
"96","R_0OqURDLSAvz32Cd","standard","2","5","LP","5.5010771219302","37.98","43.489","43.873","5.893","0.384","3","270",NA
"97","R_0OqURDLSAvz32Cd","standard","2","6","LP","19.8235243429556","44.89","64.724","65.15","20.26","0.426","3","273",NA
"98","R_0OqURDLSAvz32Cd","standard","2","7","LP","3.49090909090909","66.156","69.653","70.093","3.937","0.44","3","276",NA
"99","R_0OqURDLSAvz32Cd","standard","2","8","LP","3.49090909090909","71.116","74.614","75.074","3.958","0.46","3","279",NA
"100","R_0OqURDLSAvz32Cd","standard","2","9","LP","30","76.077","106.087","106.521","30.444","0.434","3","282",NA
"101","R_0OqURDLSAvz32Cd","standard","2","10","LP","30","107.525","137.528","137.963","30.438","0.435","3","285",NA
"102","R_0OqURDLSAvz32Cd","standard","2","11","LP","30","138.976","168.984","169.369","30.393","0.385","3","288",NA
"103","R_0OqURDLSAvz32Cd","standard","2","12","LP","5.5010771219302","170.382","175.892","176.283","5.901","0.391","3","291",NA
"104","R_0OqURDLSAvz32Cd","standard","2","13","LP","0.661783713916415","177.291","177.957","178.388","1.097","0.431","3","294",NA
"105","R_0OqURDLSAvz32Cd","standard","2","14","LP","8.51632916846187","179.39","187.915","188.328","8.938","0.413","3","297",NA
"106","R_0OqURDLSAvz32Cd","standard","2","15","LP","0.264713485566566","189.348","189.614","190.044","0.696","0.43","3","300",NA
"107","R_0OqURDLSAvz32Cd","standard","2","16","LP","8.51632916846187","191.048","199.574","200.019","8.971","0.445","3","303",NA
"108","R_0OqURDLSAvz32Cd","standard","2","17","LP","19.8235243429556","201.027","220.854","221.243","20.216","0.389","3","306",NA
"109","R_0OqURDLSAvz32Cd","standard","2","18","LP","13.0392072382594","222.251","235.305","235.676","13.425","0.371","3","309",NA
"110","R_0OqURDLSAvz32Cd","standard","2","19","LP","30","236.689","NaN","259.207","22.518","NaN","0","309",NA
"111","R_0OqURDLSAvz32Cd","standard","2","20","LP","2.15079707022835","260.218","262.385","262.788","2.57","0.403","3","312",NA
"112","R_0OqURDLSAvz32Cd","standard","2","21","LP","19.8235243429556","263.8","NaN","280.45","16.65","NaN","0","312",NA
"113","R_0OqURDLSAvz32Cd","standard","2","22","LP","0.264713485566566","281.452","281.717","282.143","0.691","0.426","3","315",NA
"114","R_0OqURDLSAvz32Cd","standard","2","23","LP","5.5010771219302","283.151","288.678","289.071","5.92","0.393","3","318",NA
"115","R_0OqURDLSAvz32Cd","standard","2","24","LP","2.15079707022835","290.077","292.241","292.629","2.552","0.388","3","321",NA
"116","R_0OqURDLSAvz32Cd","standard","2","25","LP","8.51632916846187","293.65","302.178","302.582","8.932","0.404","3","324",NA
"117","R_0OqURDLSAvz32Cd","standard","2","26","LP","13.0392072382594","303.599","316.654","317.149","13.55","0.495","3","327",NA
"118","R_0OqURDLSAvz32Cd","standard","2","27","LP","8.51632916846187","318.164","326.684","327.136","8.972","0.452","3","330",NA
"119","R_0OqURDLSAvz32Cd","standard","2","28","LP","13.0392072382594","328.14","341.196","341.556","13.416","0.36","3","333",NA
"120","R_0OqURDLSAvz32Cd","standard","2","29","LP","3.49090909090909","342.581","346.076","346.493","3.912","0.417","3","336",NA
"121","R_0OqURDLSAvz32Cd","standard","2","30","LP","3.49090909090909","347.508","351.005","351.409","3.901","0.404","3","339",NA
"122","R_0OqURDLSAvz32Cd","standard","2","31","LP","0.661783713916415","352.419","353.085","353.487","1.068","0.402","3","342",NA
"123","R_0OqURDLSAvz32Cd","standard","2","32","LP","0.661783713916415","354.501","355.17","355.53","1.029","0.36","3","345",NA
"124","R_0OqURDLSAvz32Cd","standard","2","33","LP","3.49090909090909","356.535","360.033","360.435","3.9","0.402","3","348",NA
"125","R_0OqURDLSAvz32Cd","standard","2","34","LP","3.49090909090909","361.449","364.95","365.297","3.848","0.347","3","351",NA
"126","R_0OqURDLSAvz32Cd","standard","2","35","LP","13.0392072382594","366.309","379.366","379.725","13.416","0.359","3","354",NA
"127","R_0OqURDLSAvz32Cd","standard","2","36","LP","2.15079707022835","380.736","382.895","383.272","2.536","0.377","3","357",NA
"128","R_0OqURDLSAvz32Cd","standard","2","37","LP","5.5010771219302","384.279","389.804","390.238","5.959","0.434","3","360",NA
"129","R_0OqURDLSAvz32Cd","standard","2","38","LP","2.15079707022835","391.239","393.402","393.809","2.57","0.407","3","363",NA
"130","R_0OqURDLSAvz32Cd","standard","2","39","LP","1.25738905644119","394.818","396.083","396.478","1.66","0.395","3","366",NA
"131","R_0OqURDLSAvz32Cd","standard","2","40","LP","2.15079707022835","397.484","399.646","399.994","2.51","0.348","3","369",NA
"132","R_0OqURDLSAvz32Cd","standard","2","41","LP","1.25738905644119","401.011","402.279","402.731","1.72","0.452","3","372",NA
"133","R_0OqURDLSAvz32Cd","standard","2","42","LP","1.25738905644119","403.745","405.011","405.412","1.667","0.401","3","375",NA
"134","R_0OqURDLSAvz32Cd","standard","2","43","LP","19.8235243429556","406.426","426.26","427.083","20.657","0.823","3","378",NA
"135","R_0OqURDLSAvz32Cd","standard","2","44","LP","30","428.086","NaN","443.927","15.841","NaN","0","378",NA
"136","R_0OqURDLSAvz32Cd","standard","2","45","LP","5.5010771219302","444.941","450.453","450.792","5.851","0.339","3","381",NA
"137","R_0OqURDLSAvz32Cd","standard","2","46","LP","0.264713485566566","451.801","452.069","452.591","0.79","0.522","3","384",NA
"138","R_0OqURDLSAvz32Cd","standard","2","47","LP","2.15079707022835","453.6","455.757","456.132","2.532","0.375","3","387",NA
"139","R_0OqURDLSAvz32Cd","standard","2","48","LP","3.49090909090909","457.149","460.646","461.031","3.882","0.385","3","390",NA
"140","R_0OqURDLSAvz32Cd","standard","2","49","LP","8.51632916846187","462.045","470.57","471.063","9.018","0.493","3","393",NA
"141","R_0OqURDLSAvz32Cd","standard","2","50","LP","1.25738905644119","472.084","473.35","473.726","1.642","0.376","3","396",NA
"142","R_0OqURDLSAvz32Cd","standard","2","51","LP","0.661783713916415","474.741","475.414","475.884","1.143","0.47","3","399",NA
"143","R_0OqURDLSAvz32Cd","standard","2","52","LP","0.661783713916415","476.897","477.581","478.03","1.133","0.449","3","402",NA
"144","R_0OqURDLSAvz32Cd","standard","2","53","LP","1.25738905644119","479.044","480.31","480.76","1.716","0.45","3","405",NA
"145","R_0OqURDLSAvz32Cd","standard","2","54","LP","0.264713485566566","481.777","482.044","482.57","0.793","0.526","3","408",NA
"146","R_0OqURDLSAvz32Cd","standard","2","55","LP","13.0392072382594","483.575","496.627","497.011","13.436","0.384","3","411",NA
"147","R_0OqURDLSAvz32Cd","standard","2","56","LP","1.25738905644119","498.014","499.279","499.689","1.675","0.41","3","414",NA
"148","R_0OqURDLSAvz32Cd","standard","2","57","LP","3.49090909090909","500.693","504.189","504.589","3.896","0.4","3","417",NA
"149","R_0OqURDLSAvz32Cd","standard","2","58","LP","30","505.607","NaN","522.704","17.097","NaN","0","417",NA
"150","R_0OqURDLSAvz32Cd","standard","2","59","LP","13.0392072382594","523.721","536.776","537.215","13.494","0.439","3","420",NA
"151","R_0OqURDLSAvz32Cd","standard","2","60","LP","1.25738905644119","538.233","539.508","539.862","1.629","0.354","3","423",NA
"152","R_0OqURDLSAvz32Cd","standard","2","61","LP","0.264713485566566","540.873","541.142","541.534","0.661","0.392","3","426",NA
"153","R_0OqURDLSAvz32Cd","standard","2","62","LP","8.51632916846187","542.541","551.063","551.42","8.879","0.357","3","429",NA
"154","R_0OqURDLSAvz32Cd","standard","2","63","LP","0.661783713916415","552.429","553.096","553.473","1.044","0.377","3","432",NA
"155","R_0OqURDLSAvz32Cd","standard","2","64","LP","3.49090909090909","554.48","557.973","558.429","3.949","0.456","3","435",NA
"156","R_0OqURDLSAvz32Cd","standard","2","65","LP","0.264713485566566","559.441","559.707","560.104","0.663","0.397","3","438",NA
"157","R_0OqURDLSAvz32Cd","standard","2","66","LP","0.661783713916415","561.107","561.774","562.104","0.997","0.33","3","441",NA
"158","R_0OqURDLSAvz32Cd","standard","2","67","LP","0.264713485566566","563.106","563.387","563.745","0.639","0.358","3","444",NA
"159","R_0OqURDLSAvz32Cd","standard","2","68","LP","30","564.755","NaN","578.207","13.452","NaN","0","444",NA
"160","R_0OqURDLSAvz32Cd","standard","2","69","LP","0.661783713916415","579.224","579.905","580.247","1.023","0.342","3","447",NA
"161","R_0OqURDLSAvz32Cd","standard","2","70","LP","2.15079707022835","581.273","583.435","583.802","2.529","0.367","3","450",NA
"162","R_0OqURDLSAvz32Cd","standard","2","71","LP","19.8235243429556","584.817","NaN","599.886","15.069","NaN","0","450",NA
