"","subject_id","condition","n_block","n_trialIdx","f_timing_condition","n_scheduled_delay","n_trial_start_time","n_rewarded_time_fin","n_sell_time_fin","n_time_waited_fin","RT_fin","n_trial_earnings_fin","n_total_earnings_fin","keypress_times"
"1","R_10r9D1TNwH0gvO3","standard","1","1","HP","2","0.001","2.024","2.364","2.363","0.34","3","3",""
"2","R_10r9D1TNwH0gvO3","standard","1","2","HP","16","3.381","19.398","19.718","16.337","0.32","3","6",""
"3","R_10r9D1TNwH0gvO3","standard","1","3","HP","20","20.733","40.744","41.104","20.371","0.36","3","9",""
"4","R_10r9D1TNwH0gvO3","standard","1","4","HP","12","42.12","54.133","54.434","12.314","0.301","3","12",""
"5","R_10r9D1TNwH0gvO3","standard","1","5","HP","10","55.447","65.448","65.772","10.325","0.324","3","15",""
"6","R_10r9D1TNwH0gvO3","standard","1","6","HP","4","66.795","70.817","71.121","4.326","0.304","3","18",""
"7","R_10r9D1TNwH0gvO3","standard","1","7","HP","18","72.132","90.147","90.438","18.306","0.291","3","21",""
"8","R_10r9D1TNwH0gvO3","standard","1","8","HP","4","91.45","95.456","95.845","4.395","0.389","3","24",""
"9","R_10r9D1TNwH0gvO3","standard","1","9","HP","18","96.853","114.855","115.18","18.327","0.325","3","27",""
"10","R_10r9D1TNwH0gvO3","standard","1","10","HP","12","116.2","128.21","128.526","12.326","0.316","3","30",""
"11","R_10r9D1TNwH0gvO3","standard","1","11","HP","12","129.541","141.552","141.892","12.351","0.34","3","33",""
"12","R_10r9D1TNwH0gvO3","standard","1","12","HP","6","142.915","148.922","149.194","6.279","0.272","3","36",""
"13","R_10r9D1TNwH0gvO3","standard","1","13","HP","10","150.203","160.216","160.619","10.416","0.403","3","39",""
"14","R_10r9D1TNwH0gvO3","standard","1","14","HP","14","161.632","175.636","175.918","14.286","0.282","3","42",""
"15","R_10r9D1TNwH0gvO3","standard","1","15","HP","16","176.92","192.921","193.22","16.3","0.299","3","45",""
"16","R_10r9D1TNwH0gvO3","standard","1","16","HP","10","194.221","204.228","204.57","10.349","0.342","3","48",""
"17","R_10r9D1TNwH0gvO3","standard","1","17","HP","20","205.585","225.594","225.891","20.306","0.297","3","51",""
"18","R_10r9D1TNwH0gvO3","standard","1","18","HP","14","226.91","240.912","241.208","14.298","0.296","3","54",""
"19","R_10r9D1TNwH0gvO3","standard","1","19","HP","12","242.217","254.227","254.526","12.309","0.299","3","57",""
"20","R_10r9D1TNwH0gvO3","standard","1","20","HP","2","255.542","257.548","257.864","2.322","0.316","3","60",""
"21","R_10r9D1TNwH0gvO3","standard","1","21","HP","6","258.869","264.888","265.215","6.346","0.327","3","63",""
"22","R_10r9D1TNwH0gvO3","standard","1","22","HP","12","266.218","278.218","278.511","12.293","0.293","3","66",""
"23","R_10r9D1TNwH0gvO3","standard","1","23","HP","8","279.512","287.514","287.845","8.333","0.331","3","69",""
"24","R_10r9D1TNwH0gvO3","standard","1","24","HP","18","288.846","306.861","307.178","18.332","0.317","3","72",""
"25","R_10r9D1TNwH0gvO3","standard","1","25","HP","12","308.191","320.209","320.515","12.324","0.306","3","75",""
"26","R_10r9D1TNwH0gvO3","standard","1","26","HP","14","321.516","335.522","335.84","14.324","0.318","3","78",""
"27","R_10r9D1TNwH0gvO3","standard","1","27","HP","8","336.844","344.855","345.171","8.327","0.316","3","81",""
"28","R_10r9D1TNwH0gvO3","standard","1","28","HP","4","346.188","350.21","350.546","4.358","0.336","3","84",""
"29","R_10r9D1TNwH0gvO3","standard","1","29","HP","6","351.557","357.566","357.914","6.357","0.348","3","87",""
"30","R_10r9D1TNwH0gvO3","standard","1","30","HP","18","358.917","376.924","377.236","18.319","0.312","3","90",""
"31","R_10r9D1TNwH0gvO3","standard","1","31","HP","20","378.244","398.256","398.589","20.345","0.333","3","93",""
"32","R_10r9D1TNwH0gvO3","standard","1","32","HP","4","399.602","403.618","403.943","4.341","0.325","3","96",""
"33","R_10r9D1TNwH0gvO3","standard","1","33","HP","4","404.955","408.97","409.293","4.338","0.323","3","99",""
"34","R_10r9D1TNwH0gvO3","standard","1","34","HP","16","410.314","426.318","426.7","16.386","0.382","3","102",""
"35","R_10r9D1TNwH0gvO3","standard","1","35","HP","14","427.716","441.723","442.106","14.39","0.383","3","105",""
"36","R_10r9D1TNwH0gvO3","standard","1","36","HP","14","443.143","457.147","457.505","14.362","0.358","3","108",""
"37","R_10r9D1TNwH0gvO3","standard","1","37","HP","14","458.525","472.533","472.89","14.365","0.357","3","111",""
"38","R_10r9D1TNwH0gvO3","standard","1","38","HP","10","473.899","483.911","484.229","10.33","0.318","3","114",""
"39","R_10r9D1TNwH0gvO3","standard","1","39","HP","2","485.242","487.256","487.549","2.307","0.293","3","117",""
"40","R_10r9D1TNwH0gvO3","standard","1","40","HP","2","488.555","490.567","490.9","2.345","0.333","3","120",""
"41","R_10r9D1TNwH0gvO3","standard","1","41","HP","8","491.913","499.917","500.275","8.362","0.358","3","123",""
"42","R_10r9D1TNwH0gvO3","standard","1","42","HP","6","501.296","507.316","507.713","6.417","0.397","3","126",""
"43","R_10r9D1TNwH0gvO3","standard","1","43","HP","12","508.715","520.723","521.08","12.365","0.357","3","129",""
"44","R_10r9D1TNwH0gvO3","standard","1","44","HP","16","522.091","538.108","538.423","16.332","0.315","3","132",""
"45","R_10r9D1TNwH0gvO3","standard","1","45","HP","20","539.44","559.453","559.795","20.355","0.342","3","135",""
"46","R_10r9D1TNwH0gvO3","standard","1","46","HP","4","560.812","564.826","565.158","4.346","0.332","3","138",""
"47","R_10r9D1TNwH0gvO3","standard","1","47","HP","2","566.175","568.188","568.544","2.369","0.356","3","141",""
"48","R_10r9D1TNwH0gvO3","standard","1","48","HP","2","569.55","571.565","571.918","2.368","0.353","3","144",""
"49","R_10r9D1TNwH0gvO3","standard","1","49","HP","16","572.927","588.946","589.227","16.3","0.281","3","147",""
"50","R_10r9D1TNwH0gvO3","standard","1","50","HP","2","590.245","592.258","592.643","2.398","0.385","3","150",""
"51","R_10r9D1TNwH0gvO3","standard","1","51","HP","10","593.657","603.673","603.968","10.311","0.295","3","153",""
"52","R_10r9D1TNwH0gvO3","standard","1","52","HP","4","604.985","608.993","609.367","4.382","0.374","3","156",""
"53","R_10r9D1TNwH0gvO3","standard","1","53","HP","18","610.377","628.392","628.728","18.351","0.336","3","159",""
"54","R_10r9D1TNwH0gvO3","standard","1","54","HP","12","629.741","641.752","642.246","12.505","0.494","3","162",""
"55","R_10r9D1TNwH0gvO3","standard","1","55","HP","20","643.249","663.256","663.583","20.334","0.327","3","165",""
"56","R_10r9D1TNwH0gvO3","standard","1","56","HP","2","664.591","666.603","666.913","2.322","0.31","3","168",""
"57","R_10r9D1TNwH0gvO3","standard","1","57","HP","4","667.916","671.924","672.274","4.358","0.35","3","171",""
"58","R_10r9D1TNwH0gvO3","standard","1","58","HP","8","673.276","681.292","681.652","8.376","0.36","3","174",""
"59","R_10r9D1TNwH0gvO3","standard","1","59","HP","20","682.675","702.686","702.963","20.288","0.277","3","177",""
"60","R_10r9D1TNwH0gvO3","standard","1","60","HP","8","703.968","711.986","712.37","8.402","0.384","3","180",""
"61","R_10r9D1TNwH0gvO3","standard","1","61","HP","4","713.382","717.391","717.75","4.368","0.359","3","183",""
"62","R_10r9D1TNwH0gvO3","standard","1","62","HP","16","718.758","734.761","735.061","16.303","0.3","3","186",""
"63","R_10r9D1TNwH0gvO3","standard","1","63","HP","6","736.075","742.096","742.46","6.385","0.364","3","189",""
"64","R_10r9D1TNwH0gvO3","standard","1","64","HP","2","743.476","745.489","745.859","2.383","0.37","3","192",""
"65","R_10r9D1TNwH0gvO3","standard","1","65","HP","2","746.871","748.881","749.204","2.333","0.323","3","195",""
"66","R_10r9D1TNwH0gvO3","standard","1","66","HP","4","750.212","754.221","754.565","4.353","0.344","3","198",""
"67","R_10r9D1TNwH0gvO3","standard","1","67","HP","6","755.587","761.592","761.95","6.363","0.358","3","201",""
"68","R_10r9D1TNwH0gvO3","standard","1","68","HP","16","762.956","778.961","779.262","16.306","0.301","3","204",""
"69","R_10r9D1TNwH0gvO3","standard","1","69","HP","18","780.275","798.289","798.652","18.377","0.363","3","207",""
"70","R_10r9D1TNwH0gvO3","standard","1","70","HP","6","799.656","805.677","805.992","6.336","0.315","3","210",""
"71","R_10r9D1TNwH0gvO3","standard","1","71","HP","8","807.006","815.01","815.397","8.391","0.387","3","213",""
"72","R_10r9D1TNwH0gvO3","standard","1","72","HP","12","816.405","828.415","828.651","12.246","0.236","3","216",""
"73","R_10r9D1TNwH0gvO3","standard","1","73","HP","6","829.665","835.688","836.007","6.342","0.319","3","219",""
"74","R_10r9D1TNwH0gvO3","standard","1","74","HP","20","837.017","857.018","857.326","20.309","0.308","3","222",""
"75","R_10r9D1TNwH0gvO3","standard","1","75","HP","16","858.333","874.347","874.706","16.373","0.359","3","225",""
"76","R_10r9D1TNwH0gvO3","standard","1","76","HP","16","875.71","891.713","892.222","16.512","0.509","3","228",""
"77","R_10r9D1TNwH0gvO3","standard","2","1","LP","30","0.001","NaN","15.777","15.776","NaN","0","228",NA
"78","R_10r9D1TNwH0gvO3","standard","2","2","LP","5.5010771219302","16.778","22.282","22.618","5.84","0.336","3","231",NA
"79","R_10r9D1TNwH0gvO3","standard","2","3","LP","13.0392072382594","23.619","36.675","36.979","13.36","0.304","3","234",NA
"80","R_10r9D1TNwH0gvO3","standard","2","4","LP","2.15079707022835","37.989","40.154","40.62","2.631","0.466","3","237",NA
"81","R_10r9D1TNwH0gvO3","standard","2","5","LP","19.8235243429556","41.631","NaN","57.904","16.273","NaN","0","237",NA
"82","R_10r9D1TNwH0gvO3","standard","2","6","LP","0.661783713916415","58.918","59.599","59.888","0.97","0.289","3","240",NA
"83","R_10r9D1TNwH0gvO3","standard","2","7","LP","0.661783713916415","60.896","61.578","61.91","1.014","0.332","3","243",NA
"84","R_10r9D1TNwH0gvO3","standard","2","8","LP","1.25738905644119","62.926","64.191","64.546","1.62","0.355","3","246",NA
"85","R_10r9D1TNwH0gvO3","standard","2","9","LP","19.8235243429556","65.562","NaN","81.857","16.295","NaN","0","246",NA
"86","R_10r9D1TNwH0gvO3","standard","2","10","LP","5.5010771219302","82.873","88.38","88.661","5.788","0.281","3","249",NA
"87","R_10r9D1TNwH0gvO3","standard","2","11","LP","13.0392072382594","89.675","102.719","103.035","13.36","0.316","3","252",NA
"88","R_10r9D1TNwH0gvO3","standard","2","12","LP","3.49090909090909","104.045","107.541","107.84","3.795","0.299","3","255",NA
"89","R_10r9D1TNwH0gvO3","standard","2","13","LP","19.8235243429556","108.841","NaN","125.27","16.429","NaN","0","255",NA
"90","R_10r9D1TNwH0gvO3","standard","2","14","LP","1.25738905644119","126.275","127.539","127.828","1.553","0.289","3","258",NA
"91","R_10r9D1TNwH0gvO3","standard","2","15","LP","3.49090909090909","128.834","132.344","132.673","3.839","0.329","3","261",NA
"92","R_10r9D1TNwH0gvO3","standard","2","16","LP","2.15079707022835","133.676","135.836","136.172","2.496","0.336","3","264",NA
"93","R_10r9D1TNwH0gvO3","standard","2","17","LP","2.15079707022835","137.186","139.347","139.642","2.456","0.295","3","267",NA
"94","R_10r9D1TNwH0gvO3","standard","2","18","LP","13.0392072382594","140.648","153.703","154.011","13.363","0.308","3","270",NA
"95","R_10r9D1TNwH0gvO3","standard","2","19","LP","5.5010771219302","155.019","160.525","160.86","5.841","0.335","3","273",NA
"96","R_10r9D1TNwH0gvO3","standard","2","20","LP","30","161.873","NaN","178.161","16.288","NaN","0","273",NA
"97","R_10r9D1TNwH0gvO3","standard","2","21","LP","13.0392072382594","179.175","192.215","192.517","13.342","0.302","3","276",NA
"98","R_10r9D1TNwH0gvO3","standard","2","22","LP","2.15079707022835","193.53","195.692","195.981","2.451","0.289","3","279",NA
"99","R_10r9D1TNwH0gvO3","standard","2","23","LP","2.15079707022835","196.992","199.15","199.413","2.421","0.263","3","282",NA
"100","R_10r9D1TNwH0gvO3","standard","2","24","LP","3.49090909090909","200.416","203.91","204.271","3.855","0.361","3","285",NA
"101","R_10r9D1TNwH0gvO3","standard","2","25","LP","8.51632916846187","205.276","213.807","214.109","8.833","0.302","3","288",NA
"102","R_10r9D1TNwH0gvO3","standard","2","26","LP","0.264713485566566","215.122","215.391","215.83","0.708","0.439","3","291",NA
"103","R_10r9D1TNwH0gvO3","standard","2","27","LP","8.51632916846187","216.837","225.356","225.736","8.899","0.38","3","294",NA
"104","R_10r9D1TNwH0gvO3","standard","2","28","LP","0.264713485566566","226.752","227.019","227.342","0.59","0.323","3","297",NA
"105","R_10r9D1TNwH0gvO3","standard","2","29","LP","2.15079707022835","228.351","230.516","230.801","2.45","0.285","3","300",NA
"106","R_10r9D1TNwH0gvO3","standard","2","30","LP","0.661783713916415","231.809","232.475","232.868","1.059","0.393","3","303",NA
"107","R_10r9D1TNwH0gvO3","standard","2","31","LP","0.661783713916415","233.887","234.554","234.859","0.972","0.305","3","306",NA
"108","R_10r9D1TNwH0gvO3","standard","2","32","LP","5.5010771219302","235.869","241.393","241.741","5.872","0.348","3","309",NA
"109","R_10r9D1TNwH0gvO3","standard","2","33","LP","5.5010771219302","242.755","248.263","248.529","5.774","0.266","3","312",NA
"110","R_10r9D1TNwH0gvO3","standard","2","34","LP","0.264713485566566","249.541","249.808","250.107","0.566","0.299","3","315",NA
"111","R_10r9D1TNwH0gvO3","standard","2","35","LP","19.8235243429556","251.121","NaN","267.037","15.916","NaN","0","315",NA
"112","R_10r9D1TNwH0gvO3","standard","2","36","LP","5.5010771219302","268.042","273.548","273.936","5.894","0.388","3","318",NA
"113","R_10r9D1TNwH0gvO3","standard","2","37","LP","19.8235243429556","274.945","NaN","291.184","16.239","NaN","0","318",NA
"114","R_10r9D1TNwH0gvO3","standard","2","38","LP","0.661783713916415","292.195","292.859","293.207","1.012","0.348","3","321",NA
"115","R_10r9D1TNwH0gvO3","standard","2","39","LP","0.661783713916415","294.209","294.876","295.159","0.95","0.283","3","324",NA
"116","R_10r9D1TNwH0gvO3","standard","2","40","LP","19.8235243429556","296.173","NaN","310.023","13.85","NaN","0","324",NA
"117","R_10r9D1TNwH0gvO3","standard","2","41","LP","1.25738905644119","311.042","312.307","312.601","1.559","0.294","3","327",NA
"118","R_10r9D1TNwH0gvO3","standard","2","42","LP","1.25738905644119","313.604","314.871","315.163","1.559","0.292","3","330",NA
"119","R_10r9D1TNwH0gvO3","standard","2","43","LP","13.0392072382594","316.184","NaN","327.55","11.366","NaN","0","330",NA
"120","R_10r9D1TNwH0gvO3","standard","2","44","LP","13.0392072382594","328.562","NaN","340.841","12.279","NaN","0","330",NA
"121","R_10r9D1TNwH0gvO3","standard","2","45","LP","5.5010771219302","341.842","347.345","347.671","5.829","0.326","3","333",NA
"122","R_10r9D1TNwH0gvO3","standard","2","46","LP","2.15079707022835","348.674","350.836","351.178","2.504","0.342","3","336",NA
"123","R_10r9D1TNwH0gvO3","standard","2","47","LP","5.5010771219302","352.2","357.708","358.058","5.858","0.35","3","339",NA
"124","R_10r9D1TNwH0gvO3","standard","2","48","LP","30","359.072","NaN","369.648","10.576","NaN","0","339",NA
"125","R_10r9D1TNwH0gvO3","standard","2","49","LP","1.25738905644119","370.651","371.912","372.188","1.537","0.276","3","342",NA
"126","R_10r9D1TNwH0gvO3","standard","2","50","LP","30","373.209","NaN","384.411","11.202","NaN","0","342",NA
"127","R_10r9D1TNwH0gvO3","standard","2","51","LP","30","385.424","NaN","396.951","11.527","NaN","0","342",NA
"128","R_10r9D1TNwH0gvO3","standard","2","52","LP","0.264713485566566","397.966","398.248","398.595","0.629","0.347","3","345",NA
"129","R_10r9D1TNwH0gvO3","standard","2","53","LP","0.264713485566566","399.611","399.893","400.227","0.616","0.334","3","348",NA
"130","R_10r9D1TNwH0gvO3","standard","2","54","LP","2.15079707022835","401.242","403.404","403.771","2.529","0.367","3","351",NA
"131","R_10r9D1TNwH0gvO3","standard","2","55","LP","30","404.786","NaN","415.099","10.313","NaN","0","351",NA
"132","R_10r9D1TNwH0gvO3","standard","2","56","LP","13.0392072382594","416.116","NaN","425.868","9.752","NaN","0","351",NA
"133","R_10r9D1TNwH0gvO3","standard","2","57","LP","13.0392072382594","426.874","NaN","439.343","12.469","NaN","0","351",NA
"134","R_10r9D1TNwH0gvO3","standard","2","58","LP","19.8235243429556","440.349","NaN","450.733","10.384","NaN","0","351",NA
"135","R_10r9D1TNwH0gvO3","standard","2","59","LP","30","451.753","NaN","468.502","16.749","NaN","0","351",NA
"136","R_10r9D1TNwH0gvO3","standard","2","60","LP","13.0392072382594","469.514","482.555","482.927","13.413","0.372","3","354",NA
"137","R_10r9D1TNwH0gvO3","standard","2","61","LP","19.8235243429556","483.936","NaN","503.422","19.486","NaN","0","354",NA
"138","R_10r9D1TNwH0gvO3","standard","2","62","LP","30","504.426","NaN","521.027","16.601","NaN","0","354",NA
"139","R_10r9D1TNwH0gvO3","standard","2","63","LP","3.49090909090909","522.062","525.561","525.967","3.905","0.406","3","357",NA
"140","R_10r9D1TNwH0gvO3","standard","2","64","LP","2.15079707022835","526.975","529.133","529.412","2.437","0.279","3","360",NA
"141","R_10r9D1TNwH0gvO3","standard","2","65","LP","13.0392072382594","530.416","NaN","537.615","7.199","NaN","0","360",NA
"142","R_10r9D1TNwH0gvO3","standard","2","66","LP","5.5010771219302","538.619","544.123","544.518","5.899","0.395","3","363",NA
"143","R_10r9D1TNwH0gvO3","standard","2","67","LP","0.264713485566566","545.523","545.804","546.176","0.653","0.372","3","366",NA
"144","R_10r9D1TNwH0gvO3","standard","2","68","LP","1.25738905644119","547.185","548.452","548.755","1.57","0.303","3","369",NA
"145","R_10r9D1TNwH0gvO3","standard","2","69","LP","13.0392072382594","549.782","NaN","556.951","7.169","NaN","0","369",NA
"146","R_10r9D1TNwH0gvO3","standard","2","70","LP","19.8235243429556","557.954","NaN","566.418","8.464","NaN","0","369",NA
"147","R_10r9D1TNwH0gvO3","standard","2","71","LP","13.0392072382594","567.431","NaN","574.077","6.646","NaN","0","369",NA
"148","R_10r9D1TNwH0gvO3","standard","2","72","LP","0.661783713916415","575.083","575.746","576.107","1.024","0.361","3","372",NA
"149","R_10r9D1TNwH0gvO3","standard","2","73","LP","8.51632916846187","577.112","NaN","583.848","6.736","NaN","0","372",NA
"150","R_10r9D1TNwH0gvO3","standard","2","74","LP","0.264713485566566","584.85","585.115","585.432","0.582","0.317","3","375",NA
"151","R_10r9D1TNwH0gvO3","standard","2","75","LP","0.661783713916415","586.442","587.109","587.367","0.925","0.258","3","378",NA
"152","R_10r9D1TNwH0gvO3","standard","2","76","LP","13.0392072382594","588.376","NaN","595.723","7.347","NaN","0","378",NA
