"","subject_id","condition","n_block","n_trialIdx","f_timing_condition","n_scheduled_delay","n_trial_start_time","n_rewarded_time_fin","n_sell_time_fin","n_time_waited_fin","RT_fin","n_trial_earnings_fin","n_total_earnings_fin","keypress_times"
"1","R_10B3eMVRlVGbytJ","standard","1","1","HP","16","0.001","16.025","16.307","16.306","0.282","3","3",""
"2","R_10B3eMVRlVGbytJ","standard","1","2","HP","6","17.309","23.318","NA","7.013","NA","0","3",""
"3","R_10B3eMVRlVGbytJ","standard","1","3","HP","6","25.33","31.353","31.603","6.273","0.25","3","6",""
"4","R_10B3eMVRlVGbytJ","standard","1","4","HP","2","32.61","34.611","34.897","2.287","0.286","3","9",""
"5","R_10B3eMVRlVGbytJ","standard","1","5","HP","10","35.898","45.906","46.258","10.36","0.352","3","12",""
"6","R_10B3eMVRlVGbytJ","standard","1","6","HP","14","47.271","61.274","61.768","14.497","0.494","3","15",""
"7","R_10B3eMVRlVGbytJ","standard","1","7","HP","8","62.782","70.79","71.101","8.319","0.311","3","18",""
"8","R_10B3eMVRlVGbytJ","standard","1","8","HP","2","72.106","74.107","74.434","2.328","0.327","3","21",""
"9","R_10B3eMVRlVGbytJ","standard","1","9","HP","2","75.449","77.463","77.791","2.342","0.328","3","24",""
"10","R_10B3eMVRlVGbytJ","standard","1","10","HP","4","78.794","82.811","83.221","4.427","0.41","3","27",""
"11","R_10B3eMVRlVGbytJ","standard","1","11","HP","4","84.227","88.234","88.815","4.588","0.581","3","30",""
"12","R_10B3eMVRlVGbytJ","standard","1","12","HP","12","89.82","101.821","102.143","12.323","0.322","3","33",""
"13","R_10B3eMVRlVGbytJ","standard","1","13","HP","2","103.157","105.163","105.656","2.499","0.493","3","36",""
"14","R_10B3eMVRlVGbytJ","standard","1","14","HP","20","106.659","126.67","126.916","20.257","0.246","3","39",""
"15","R_10B3eMVRlVGbytJ","standard","1","15","HP","6","127.923","133.93","134.278","6.355","0.348","3","42",""
"16","R_10B3eMVRlVGbytJ","standard","1","16","HP","18","135.282","153.29","153.715","18.433","0.425","3","45",""
"17","R_10B3eMVRlVGbytJ","standard","1","17","HP","4","154.724","158.73","159.017","4.293","0.287","3","48",""
"18","R_10B3eMVRlVGbytJ","standard","1","18","HP","2","160.02","162.021","162.356","2.336","0.335","3","51",""
"19","R_10B3eMVRlVGbytJ","standard","1","19","HP","6","163.362","169.373","169.952","6.59","0.579","3","54",""
"20","R_10B3eMVRlVGbytJ","standard","1","20","HP","2","170.97","172.981","173.433","2.463","0.452","3","57",""
"21","R_10B3eMVRlVGbytJ","standard","1","21","HP","4","174.443","178.456","178.735","4.292","0.279","3","60",""
"22","R_10B3eMVRlVGbytJ","standard","1","22","HP","14","179.738","193.76","194.052","14.314","0.292","3","63",""
"23","R_10B3eMVRlVGbytJ","standard","1","23","HP","10","195.058","205.077","205.445","10.387","0.368","3","66",""
"24","R_10B3eMVRlVGbytJ","standard","1","24","HP","4","206.462","210.475","210.747","4.285","0.272","3","69",""
"25","R_10B3eMVRlVGbytJ","standard","1","25","HP","2","211.755","213.776","214.082","2.327","0.306","3","72",""
"26","R_10B3eMVRlVGbytJ","standard","1","26","HP","12","215.09","227.099","227.407","12.317","0.308","3","75",""
"27","R_10B3eMVRlVGbytJ","standard","1","27","HP","18","228.412","246.42","246.754","18.342","0.334","3","78",""
"28","R_10B3eMVRlVGbytJ","standard","1","28","HP","4","247.762","251.77","252.129","4.367","0.359","3","81",""
"29","R_10B3eMVRlVGbytJ","standard","1","29","HP","12","253.13","265.138","265.494","12.364","0.356","3","81","9272"
"30","R_10B3eMVRlVGbytJ","standard","1","30","HP","20","266.499","286.506","286.807","20.308","0.301","3","84",""
"31","R_10B3eMVRlVGbytJ","standard","1","31","HP","6","287.813","293.82","294.151","6.338","0.331","3","87",""
"32","R_10B3eMVRlVGbytJ","standard","1","32","HP","18","295.155","313.163","313.479","18.324","0.316","3","90",""
"33","R_10B3eMVRlVGbytJ","standard","1","33","HP","18","314.483","332.49","332.859","18.376","0.369","3","93",""
"34","R_10B3eMVRlVGbytJ","standard","1","34","HP","14","333.866","347.874","348.218","14.352","0.344","3","96",""
"35","R_10B3eMVRlVGbytJ","standard","1","35","HP","8","349.227","357.235","357.639","8.412","0.404","3","99",""
"36","R_10B3eMVRlVGbytJ","standard","1","36","HP","8","358.642","366.658","367.083","8.441","0.425","3","102",""
"37","R_10B3eMVRlVGbytJ","standard","1","37","HP","10","368.09","378.098","378.431","10.341","0.333","3","105",""
"38","R_10B3eMVRlVGbytJ","standard","1","38","HP","6","379.434","385.436","385.804","6.37","0.368","3","108",""
"39","R_10B3eMVRlVGbytJ","standard","1","39","HP","14","386.81","400.819","401.191","14.381","0.372","3","111",""
"40","R_10B3eMVRlVGbytJ","standard","1","40","HP","6","402.203","408.211","408.548","6.345","0.337","3","114",""
"41","R_10B3eMVRlVGbytJ","standard","1","41","HP","8","409.56","417.562","417.923","8.363","0.361","3","117",""
"42","R_10B3eMVRlVGbytJ","standard","1","42","HP","4","418.928","422.93","423.26","4.332","0.33","3","120",""
"43","R_10B3eMVRlVGbytJ","standard","1","43","HP","6","424.266","430.275","430.793","6.527","0.518","3","123",""
"44","R_10B3eMVRlVGbytJ","standard","1","44","HP","12","431.8","443.818","444.233","12.433","0.415","3","126",""
"45","R_10B3eMVRlVGbytJ","standard","1","45","HP","10","445.235","455.242","455.631","10.396","0.389","3","129",""
"46","R_10B3eMVRlVGbytJ","standard","1","46","HP","10","456.637","466.64","466.972","10.335","0.332","3","132",""
"47","R_10B3eMVRlVGbytJ","standard","1","47","HP","20","467.993","487.994","488.303","20.31","0.309","3","135",""
"48","R_10B3eMVRlVGbytJ","standard","1","48","HP","20","489.307","509.308","509.595","20.288","0.287","3","138",""
"49","R_10B3eMVRlVGbytJ","standard","1","49","HP","10","510.61","520.611","521.025","10.415","0.414","3","141",""
"50","R_10B3eMVRlVGbytJ","standard","1","50","HP","18","522.026","540.034","540.371","18.345","0.337","3","144",""
"51","R_10B3eMVRlVGbytJ","standard","1","51","HP","10","541.383","551.386","551.707","10.324","0.321","3","147",""
"52","R_10B3eMVRlVGbytJ","standard","1","52","HP","4","552.708","556.715","557.078","4.37","0.363","3","150",""
"53","R_10B3eMVRlVGbytJ","standard","1","53","HP","10","558.096","568.098","568.431","10.335","0.333","3","153",""
"54","R_10B3eMVRlVGbytJ","standard","1","54","HP","18","569.434","587.443","587.968","18.534","0.525","3","156",""
"55","R_10B3eMVRlVGbytJ","standard","1","55","HP","8","588.979","596.988","597.414","8.435","0.426","3","159",""
"56","R_10B3eMVRlVGbytJ","standard","1","56","HP","16","598.418","614.427","614.971","16.553","0.544","3","162",""
"57","R_10B3eMVRlVGbytJ","standard","1","57","HP","6","615.978","621.989","622.393","6.415","0.404","3","165",""
"58","R_10B3eMVRlVGbytJ","standard","1","58","HP","6","623.416","629.423","629.863","6.447","0.44","3","168",""
"59","R_10B3eMVRlVGbytJ","standard","1","59","HP","8","630.866","638.874","639.299","8.433","0.425","3","171",""
"60","R_10B3eMVRlVGbytJ","standard","1","60","HP","2","640.32","642.329","642.75","2.43","0.421","3","174",""
"61","R_10B3eMVRlVGbytJ","standard","1","61","HP","8","643.76","651.762","652.122","8.362","0.36","3","177",""
"62","R_10B3eMVRlVGbytJ","standard","1","62","HP","14","653.13","667.142","667.465","14.335","0.323","3","180",""
"63","R_10B3eMVRlVGbytJ","standard","1","63","HP","12","668.475","680.494","680.851","12.376","0.357","3","183",""
"64","R_10B3eMVRlVGbytJ","standard","1","64","HP","20","681.858","701.866","702.231","20.373","0.365","3","186",""
"65","R_10B3eMVRlVGbytJ","standard","1","65","HP","10","703.235","713.249","713.599","10.364","0.35","3","189",""
"66","R_10B3eMVRlVGbytJ","standard","1","66","HP","10","714.603","724.61","724.941","10.338","0.331","3","192",""
"67","R_10B3eMVRlVGbytJ","standard","1","67","HP","16","725.946","741.963","742.309","16.363","0.346","3","195",""
"68","R_10B3eMVRlVGbytJ","standard","1","68","HP","12","743.314","755.322","755.643","12.329","0.321","3","198",""
"69","R_10B3eMVRlVGbytJ","standard","1","69","HP","16","756.66","772.666","773.092","16.432","0.426","3","201",""
"70","R_10B3eMVRlVGbytJ","standard","1","70","HP","18","774.105","792.115","792.677","18.572","0.562","3","204",""
"71","R_10B3eMVRlVGbytJ","standard","1","71","HP","18","793.682","811.691","812.067","18.385","0.376","3","207",""
"72","R_10B3eMVRlVGbytJ","standard","1","72","HP","4","813.074","817.082","817.456","4.382","0.374","3","210",""
"73","R_10B3eMVRlVGbytJ","standard","1","73","HP","6","818.458","824.466","824.829","6.371","0.363","3","213",""
"74","R_10B3eMVRlVGbytJ","standard","1","74","HP","18","825.84","843.849","844.255","18.415","0.406","3","216",""
"75","R_10B3eMVRlVGbytJ","standard","1","75","HP","2","845.263","847.266","847.685","2.422","0.419","3","219",""
"76","R_10B3eMVRlVGbytJ","standard","1","76","HP","12","848.691","860.698","861.046","12.355","0.348","3","222",""
"77","R_10B3eMVRlVGbytJ","standard","1","77","HP","10","862.05","872.058","872.406","10.356","0.348","3","225",""
"78","R_10B3eMVRlVGbytJ","standard","1","78","HP","18","873.422","891.422","891.751","18.329","0.329","3","228",""
"79","R_10B3eMVRlVGbytJ","standard","1","79","HP","2","892.757","894.769","895.341","2.584","0.572","3","231",""
"80","R_10B3eMVRlVGbytJ","standard","2","1","LP","1.25738905644119","0","1.265","1.638","1.638","0.373","3","234",NA
"81","R_10B3eMVRlVGbytJ","standard","2","2","LP","0.264713485566566","2.653","2.921","3.28","0.627","0.359","3","237",NA
"82","R_10B3eMVRlVGbytJ","standard","2","3","LP","8.51632916846187","4.281","NaN","7.717","3.436","NaN","0","237",NA
"83","R_10B3eMVRlVGbytJ","standard","2","4","LP","1.25738905644119","8.721","9.986","10.358","1.637","0.372","3","240",NA
"84","R_10B3eMVRlVGbytJ","standard","2","5","LP","1.25738905644119","11.362","12.625","12.971","1.609","0.346","3","243",NA
"85","R_10B3eMVRlVGbytJ","standard","2","6","LP","3.49090909090909","13.977","NaN","17.176","3.199","NaN","0","243",NA
"86","R_10B3eMVRlVGbytJ","standard","2","7","LP","0.661783713916415","18.185","18.849","19.108","0.923","0.259","3","246",NA
"87","R_10B3eMVRlVGbytJ","standard","2","8","LP","3.49090909090909","20.112","NaN","22.744","2.632","NaN","0","246",NA
"88","R_10B3eMVRlVGbytJ","standard","2","9","LP","2.15079707022835","23.767","25.919","26.194","2.427","0.275","3","249",NA
"89","R_10B3eMVRlVGbytJ","standard","2","10","LP","1.25738905644119","27.201","28.465","28.78","1.579","0.315","3","252",NA
"90","R_10B3eMVRlVGbytJ","standard","2","11","LP","0.661783713916415","29.788","30.457","30.727","0.939","0.27","3","255",NA
"91","R_10B3eMVRlVGbytJ","standard","2","12","LP","19.8235243429556","31.729","NaN","34.66","2.931","NaN","0","255",NA
"92","R_10B3eMVRlVGbytJ","standard","2","13","LP","0.264713485566566","35.666","35.937","36.213","0.547","0.276","3","258",NA
"93","R_10B3eMVRlVGbytJ","standard","2","14","LP","2.15079707022835","37.217","39.379","39.731","2.514","0.352","3","261",NA
"94","R_10B3eMVRlVGbytJ","standard","2","15","LP","3.49090909090909","40.737","NaN","43.678","2.941","NaN","0","261",NA
"95","R_10B3eMVRlVGbytJ","standard","2","16","LP","0.264713485566566","44.696","44.973","45.244","0.548","0.271","3","264",NA
"96","R_10B3eMVRlVGbytJ","standard","2","17","LP","8.51632916846187","46.25","NaN","48.683","2.433","NaN","0","264",NA
"97","R_10B3eMVRlVGbytJ","standard","2","18","LP","0.661783713916415","49.689","50.353","50.594","0.905","0.241","3","267",NA
"98","R_10B3eMVRlVGbytJ","standard","2","19","LP","13.0392072382594","51.601","NaN","54.383","2.782","NaN","0","267",NA
"99","R_10B3eMVRlVGbytJ","standard","2","20","LP","2.15079707022835","55.384","57.547","57.852","2.468","0.305","3","270",NA
"100","R_10B3eMVRlVGbytJ","standard","2","21","LP","3.49090909090909","58.869","NaN","62.09","3.221","NaN","0","270",NA
"101","R_10B3eMVRlVGbytJ","standard","2","22","LP","0.264713485566566","63.11","63.386","63.701","0.591","0.315","3","273",NA
"102","R_10B3eMVRlVGbytJ","standard","2","23","LP","0.661783713916415","64.705","65.369","65.684","0.979","0.315","3","276",NA
"103","R_10B3eMVRlVGbytJ","standard","2","24","LP","2.15079707022835","66.703","68.869","69.137","2.434","0.268","3","279",NA
"104","R_10B3eMVRlVGbytJ","standard","2","25","LP","0.661783713916415","70.145","70.817","71.196","1.051","0.379","3","282",NA
"105","R_10B3eMVRlVGbytJ","standard","2","26","LP","13.0392072382594","72.204","NaN","74.915","2.711","NaN","0","282",NA
"106","R_10B3eMVRlVGbytJ","standard","2","27","LP","2.15079707022835","75.922","78.073","78.399","2.477","0.326","3","285",NA
"107","R_10B3eMVRlVGbytJ","standard","2","28","LP","0.661783713916415","79.401","80.065","80.446","1.045","0.381","3","288",NA
"108","R_10B3eMVRlVGbytJ","standard","2","29","LP","19.8235243429556","81.457","NaN","84.474","3.017","NaN","0","288",NA
"109","R_10B3eMVRlVGbytJ","standard","2","30","LP","30","85.481","NaN","88.536","3.055","NaN","0","288",NA
"110","R_10B3eMVRlVGbytJ","standard","2","31","LP","8.51632916846187","89.549","NaN","94.994","5.445","NaN","0","288",NA
"111","R_10B3eMVRlVGbytJ","standard","2","32","LP","5.5010771219302","96.002","NaN","101.043","5.041","NaN","0","288",NA
"112","R_10B3eMVRlVGbytJ","standard","2","33","LP","0.264713485566566","102.049","102.317","102.806","0.757","0.489","3","291",NA
"113","R_10B3eMVRlVGbytJ","standard","2","34","LP","1.25738905644119","103.813","105.073","105.331","1.518","0.258","3","294",NA
"114","R_10B3eMVRlVGbytJ","standard","2","35","LP","30","106.337","NaN","109.217","2.88","NaN","0","294",NA
"115","R_10B3eMVRlVGbytJ","standard","2","36","LP","0.264713485566566","110.234","110.506","110.874","0.64","0.368","3","297",NA
"116","R_10B3eMVRlVGbytJ","standard","2","37","LP","0.264713485566566","111.895","112.161","112.478","0.583","0.317","3","300",NA
"117","R_10B3eMVRlVGbytJ","standard","2","38","LP","13.0392072382594","113.481","NaN","116.823","3.342","NaN","0","300",NA
"118","R_10B3eMVRlVGbytJ","standard","2","39","LP","1.25738905644119","117.825","119.099","119.383","1.558","0.284","3","303",NA
"119","R_10B3eMVRlVGbytJ","standard","2","40","LP","1.25738905644119","120.39","121.651","122.111","1.721","0.46","3","306",NA
"120","R_10B3eMVRlVGbytJ","standard","2","41","LP","30","123.119","NaN","125.781","2.662","NaN","0","306",NA
"121","R_10B3eMVRlVGbytJ","standard","2","42","LP","13.0392072382594","126.786","NaN","130.205","3.419","NaN","0","306",NA
"122","R_10B3eMVRlVGbytJ","standard","2","43","LP","30","131.21","NaN","134.775","3.565","NaN","0","306",NA
"123","R_10B3eMVRlVGbytJ","standard","2","44","LP","0.264713485566566","135.791","136.068","136.435","0.644","0.367","3","309",NA
"124","R_10B3eMVRlVGbytJ","standard","2","45","LP","13.0392072382594","137.448","NaN","140.943","3.495","NaN","0","309",NA
"125","R_10B3eMVRlVGbytJ","standard","2","46","LP","2.15079707022835","141.945","144.102","144.398","2.453","0.296","3","312",NA
"126","R_10B3eMVRlVGbytJ","standard","2","47","LP","5.5010771219302","145.401","NaN","148.775","3.374","NaN","0","312",NA
"127","R_10B3eMVRlVGbytJ","standard","2","48","LP","19.8235243429556","149.784","NaN","153.084","3.3","NaN","0","312",NA
"128","R_10B3eMVRlVGbytJ","standard","2","49","LP","8.51632916846187","154.099","NaN","158.704","4.605","NaN","0","312",NA
"129","R_10B3eMVRlVGbytJ","standard","2","50","LP","2.15079707022835","159.706","161.871","162.162","2.456","0.291","3","315",NA
"130","R_10B3eMVRlVGbytJ","standard","2","51","LP","19.8235243429556","163.174","NaN","168.13","4.956","NaN","0","315",NA
"131","R_10B3eMVRlVGbytJ","standard","2","52","LP","19.8235243429556","169.14","NaN","173.988","4.848","NaN","0","315",NA
"132","R_10B3eMVRlVGbytJ","standard","2","53","LP","13.0392072382594","174.993","NaN","179.647","4.654","NaN","0","315",NA
"133","R_10B3eMVRlVGbytJ","standard","2","54","LP","30","180.653","NaN","185.741","5.088","NaN","0","315",NA
"134","R_10B3eMVRlVGbytJ","standard","2","55","LP","8.51632916846187","186.751","NaN","191.552","4.801","NaN","0","315",NA
"135","R_10B3eMVRlVGbytJ","standard","2","56","LP","5.5010771219302","192.553","198.062","198.397","5.844","0.335","3","318",NA
"136","R_10B3eMVRlVGbytJ","standard","2","57","LP","3.49090909090909","199.401","202.897","203.196","3.795","0.299","3","321",NA
"137","R_10B3eMVRlVGbytJ","standard","2","58","LP","3.49090909090909","204.212","207.718","208.144","3.932","0.426","3","324",NA
"138","R_10B3eMVRlVGbytJ","standard","2","59","LP","2.15079707022835","209.161","211.312","211.584","2.423","0.272","3","327",NA
"139","R_10B3eMVRlVGbytJ","standard","2","60","LP","5.5010771219302","212.6","218.117","218.521","5.921","0.404","3","330",NA
"140","R_10B3eMVRlVGbytJ","standard","2","61","LP","5.5010771219302","219.53","225.033","225.318","5.788","0.285","3","333",NA
"141","R_10B3eMVRlVGbytJ","standard","2","62","LP","0.661783713916415","226.321","226.985","227.747","1.426","0.762","3","336",NA
"142","R_10B3eMVRlVGbytJ","standard","2","63","LP","0.661783713916415","228.753","229.421","229.805","1.052","0.384","3","339",NA
"143","R_10B3eMVRlVGbytJ","standard","2","64","LP","3.49090909090909","230.815","234.316","234.649","3.834","0.333","3","342",NA
"144","R_10B3eMVRlVGbytJ","standard","2","65","LP","3.49090909090909","235.657","239.153","239.436","3.779","0.283","3","345",NA
"145","R_10B3eMVRlVGbytJ","standard","2","66","LP","13.0392072382594","240.441","NaN","246.968","6.527","NaN","0","345",NA
"146","R_10B3eMVRlVGbytJ","standard","2","67","LP","30","247.977","NaN","255.103","7.126","NaN","0","345",NA
"147","R_10B3eMVRlVGbytJ","standard","2","68","LP","0.661783713916415","256.105","256.77","257.238","1.133","0.468","3","348",NA
"148","R_10B3eMVRlVGbytJ","standard","2","69","LP","2.15079707022835","258.241","260.393","260.69","2.449","0.297","3","351",NA
"149","R_10B3eMVRlVGbytJ","standard","2","70","LP","2.15079707022835","261.698","263.85","264.21","2.512","0.36","3","354",NA
"150","R_10B3eMVRlVGbytJ","standard","2","71","LP","1.25738905644119","265.218","266.496","266.834","1.616","0.338","3","357",NA
"151","R_10B3eMVRlVGbytJ","standard","2","72","LP","0.661783713916415","267.841","268.506","268.918","1.077","0.412","3","360",NA
"152","R_10B3eMVRlVGbytJ","standard","2","73","LP","2.15079707022835","269.921","272.084","272.368","2.447","0.284","3","363",NA
"153","R_10B3eMVRlVGbytJ","standard","2","74","LP","5.5010771219302","273.369","278.873","279.138","5.769","0.265","3","366",NA
"154","R_10B3eMVRlVGbytJ","standard","2","75","LP","8.51632916846187","280.145","NaN","287.465","7.32","NaN","0","366",NA
"155","R_10B3eMVRlVGbytJ","standard","2","76","LP","19.8235243429556","288.486","NaN","295.277","6.791","NaN","0","366",NA
"156","R_10B3eMVRlVGbytJ","standard","2","77","LP","1.25738905644119","296.281","297.545","298.164","1.883","0.619","3","369",NA
"157","R_10B3eMVRlVGbytJ","standard","2","78","LP","1.25738905644119","299.179","300.454","300.895","1.716","0.441","3","372",NA
"158","R_10B3eMVRlVGbytJ","standard","2","79","LP","3.49090909090909","301.911","305.402","305.79","3.879","0.388","3","375",NA
"159","R_10B3eMVRlVGbytJ","standard","2","80","LP","0.661783713916415","306.793","307.471","307.9","1.107","0.429","3","378",NA
"160","R_10B3eMVRlVGbytJ","standard","2","81","LP","19.8235243429556","308.906","NaN","317.137","8.231","NaN","0","378",NA
"161","R_10B3eMVRlVGbytJ","standard","2","82","LP","0.264713485566566","318.15","318.417","318.859","0.709","0.442","3","381",NA
"162","R_10B3eMVRlVGbytJ","standard","2","83","LP","5.5010771219302","319.865","325.382","325.753","5.888","0.371","3","384",NA
"163","R_10B3eMVRlVGbytJ","standard","2","84","LP","0.661783713916415","326.761","327.426","327.927","1.166","0.501","3","387",NA
"164","R_10B3eMVRlVGbytJ","standard","2","85","LP","8.51632916846187","328.929","NaN","336.842","7.913","NaN","0","387",NA
"165","R_10B3eMVRlVGbytJ","standard","2","86","LP","13.0392072382594","337.859","NaN","345.25","7.391","NaN","0","387",NA
"166","R_10B3eMVRlVGbytJ","standard","2","87","LP","2.15079707022835","346.264","348.416","348.838","2.574","0.422","3","390",NA
"167","R_10B3eMVRlVGbytJ","standard","2","88","LP","1.25738905644119","349.844","351.12","351.61","1.766","0.49","3","393",NA
"168","R_10B3eMVRlVGbytJ","standard","2","89","LP","0.661783713916415","352.611","353.281","353.699","1.088","0.418","3","396",NA
"169","R_10B3eMVRlVGbytJ","standard","2","90","LP","19.8235243429556","354.714","NaN","363.312","8.598","NaN","0","396",NA
"170","R_10B3eMVRlVGbytJ","standard","2","91","LP","1.25738905644119","364.315","365.577","365.936","1.621","0.359","3","399",NA
"171","R_10B3eMVRlVGbytJ","standard","2","92","LP","3.49090909090909","366.957","370.457","370.804","3.847","0.347","3","402",NA
"172","R_10B3eMVRlVGbytJ","standard","2","93","LP","0.661783713916415","371.809","372.485","372.933","1.124","0.448","3","405",NA
"173","R_10B3eMVRlVGbytJ","standard","2","94","LP","30","373.943","NaN","381.862","7.919","NaN","0","405",NA
"174","R_10B3eMVRlVGbytJ","standard","2","95","LP","1.25738905644119","382.869","384.129","384.569","1.7","0.44","3","408",NA
"175","R_10B3eMVRlVGbytJ","standard","2","96","LP","8.51632916846187","385.589","NaN","394.064","8.475","NaN","0","408",NA
"176","R_10B3eMVRlVGbytJ","standard","2","97","LP","1.25738905644119","395.068","396.329","396.718","1.65","0.389","3","411",NA
"177","R_10B3eMVRlVGbytJ","standard","2","98","LP","2.15079707022835","397.721","399.873","400.157","2.436","0.284","3","414",NA
"178","R_10B3eMVRlVGbytJ","standard","2","99","LP","0.661783713916415","401.17","401.845","402.217","1.047","0.372","3","417",NA
"179","R_10B3eMVRlVGbytJ","standard","2","100","LP","13.0392072382594","403.225","NaN","410.43","7.205","NaN","0","417",NA
"180","R_10B3eMVRlVGbytJ","standard","2","101","LP","5.5010771219302","411.434","416.937","417.27","5.836","0.333","3","420",NA
"181","R_10B3eMVRlVGbytJ","standard","2","102","LP","13.0392072382594","418.287","NaN","428.563","10.276","NaN","0","420",NA
"182","R_10B3eMVRlVGbytJ","standard","2","103","LP","2.15079707022835","429.569","431.72","432.094","2.525","0.374","3","423",NA
"183","R_10B3eMVRlVGbytJ","standard","2","104","LP","5.5010771219302","433.099","438.614","438.957","5.858","0.343","3","426",NA
"184","R_10B3eMVRlVGbytJ","standard","2","105","LP","13.0392072382594","439.961","NaN","448.813","8.852","NaN","0","426",NA
"185","R_10B3eMVRlVGbytJ","standard","2","106","LP","1.25738905644119","449.816","451.081","451.449","1.633","0.368","3","429",NA
"186","R_10B3eMVRlVGbytJ","standard","2","107","LP","0.661783713916415","452.46","453.122","453.731","1.271","0.609","3","432",NA
"187","R_10B3eMVRlVGbytJ","standard","2","108","LP","1.25738905644119","454.751","456.012","456.372","1.621","0.36","3","435",NA
"188","R_10B3eMVRlVGbytJ","standard","2","109","LP","19.8235243429556","457.377","NaN","466.866","9.489","NaN","0","435",NA
"189","R_10B3eMVRlVGbytJ","standard","2","110","LP","1.25738905644119","467.873","469.137","469.896","2.023","0.759","3","438",NA
"190","R_10B3eMVRlVGbytJ","standard","2","111","LP","0.264713485566566","470.898","471.169","471.726","0.828","0.557","3","441",NA
"191","R_10B3eMVRlVGbytJ","standard","2","112","LP","19.8235243429556","472.74","NaN","480.472","7.732","NaN","0","441",NA
"192","R_10B3eMVRlVGbytJ","standard","2","113","LP","30","481.484","NaN","490.214","8.73","NaN","0","441",NA
"193","R_10B3eMVRlVGbytJ","standard","2","114","LP","2.15079707022835","491.217","493.374","493.719","2.502","0.345","3","444",NA
"194","R_10B3eMVRlVGbytJ","standard","2","115","LP","3.49090909090909","494.722","498.225","498.54","3.818","0.315","3","447",NA
"195","R_10B3eMVRlVGbytJ","standard","2","116","LP","0.264713485566566","499.545","499.811","500.341","0.796","0.53","3","450",NA
"196","R_10B3eMVRlVGbytJ","standard","2","117","LP","2.15079707022835","501.36","503.514","503.845","2.485","0.331","3","453",NA
"197","R_10B3eMVRlVGbytJ","standard","2","118","LP","30","504.864","NaN","513.276","8.412","NaN","0","453",NA
"198","R_10B3eMVRlVGbytJ","standard","2","119","LP","3.49090909090909","514.283","517.785","518.064","3.781","0.279","3","456",NA
"199","R_10B3eMVRlVGbytJ","standard","2","120","LP","3.49090909090909","519.065","522.561","522.872","3.807","0.311","3","459",NA
"200","R_10B3eMVRlVGbytJ","standard","2","121","LP","30","523.881","NaN","533.941","10.06","NaN","0","459",NA
"201","R_10B3eMVRlVGbytJ","standard","2","122","LP","0.264713485566566","534.948","535.217","535.678","0.73","0.461","3","462",NA
"202","R_10B3eMVRlVGbytJ","standard","2","123","LP","0.264713485566566","536.684","536.96","537.628","0.944","0.668","3","465",NA
"203","R_10B3eMVRlVGbytJ","standard","2","124","LP","13.0392072382594","538.634","NaN","546.238","7.604","NaN","0","465",NA
"204","R_10B3eMVRlVGbytJ","standard","2","125","LP","2.15079707022835","547.242","549.401","549.94","2.698","0.539","3","468",NA
"205","R_10B3eMVRlVGbytJ","standard","2","126","LP","3.49090909090909","550.946","554.453","554.786","3.84","0.333","3","471",NA
"206","R_10B3eMVRlVGbytJ","standard","2","127","LP","0.661783713916415","555.806","556.473","556.877","1.071","0.404","3","474",NA
"207","R_10B3eMVRlVGbytJ","standard","2","128","LP","1.25738905644119","557.881","559.146","559.573","1.692","0.427","3","477",NA
"208","R_10B3eMVRlVGbytJ","standard","2","129","LP","13.0392072382594","560.577","NaN","567.728","7.151","NaN","0","477",NA
"209","R_10B3eMVRlVGbytJ","standard","2","130","LP","3.49090909090909","568.744","572.241","572.585","3.841","0.344","3","480",NA
"210","R_10B3eMVRlVGbytJ","standard","2","131","LP","3.49090909090909","573.594","577.105","577.406","3.812","0.301","3","483",NA
"211","R_10B3eMVRlVGbytJ","standard","2","132","LP","5.5010771219302","578.412","583.917","584.236","5.824","0.319","3","486",NA
"212","R_10B3eMVRlVGbytJ","standard","2","133","LP","30","585.241","NaN","593.648","8.407","NaN","0","486",NA
"213","R_10B3eMVRlVGbytJ","standard","2","134","LP","2.15079707022835","594.649","596.812","597.134","2.485","0.322","3","489",NA
