"","subject_id","condition","n_block","n_trialIdx","f_timing_condition","n_scheduled_delay","n_trial_start_time","n_rewarded_time_fin","n_sell_time_fin","n_time_waited_fin","RT_fin","n_trial_earnings_fin","n_total_earnings_fin","keypress_times"
"1","R_10qFhOnjSKIzebU","standard","1","1","HP","18","0.001","18.016","18.347","18.346","0.331","3","3",""
"2","R_10qFhOnjSKIzebU","standard","1","2","HP","16","19.355","35.356","35.679","16.324","0.323","3","6",""
"3","R_10qFhOnjSKIzebU","standard","1","3","HP","12","36.695","48.705","49.048","12.353","0.343","3","9",""
"4","R_10qFhOnjSKIzebU","standard","1","4","HP","4","50.056","54.065","55.003","4.947","0.938","3","12",""
"5","R_10qFhOnjSKIzebU","standard","1","5","HP","2","56.012","58.025","58.432","2.42","0.407","3","15",""
"6","R_10qFhOnjSKIzebU","standard","1","6","HP","12","59.442","71.444","71.735","12.293","0.291","3","18",""
"7","R_10qFhOnjSKIzebU","standard","1","7","HP","14","72.744","86.745","87.093","14.349","0.348","3","21",""
"8","R_10qFhOnjSKIzebU","standard","1","8","HP","18","88.116","106.12","106.443","18.327","0.323","3","24",""
"9","R_10qFhOnjSKIzebU","standard","1","9","HP","16","107.447","123.456","123.781","16.334","0.325","3","27",""
"10","R_10qFhOnjSKIzebU","standard","1","10","HP","12","124.799","136.811","137.363","12.564","0.552","3","30",""
"11","R_10qFhOnjSKIzebU","standard","1","11","HP","4","138.376","142.385","142.802","4.426","0.417","3","33",""
"12","R_10qFhOnjSKIzebU","standard","1","12","HP","12","143.817","155.819","156.13","12.313","0.311","3","33","5712"
"13","R_10qFhOnjSKIzebU","standard","1","13","HP","20","157.146","177.154","177.462","20.316","0.308","3","36",""
"14","R_10qFhOnjSKIzebU","standard","1","14","HP","14","178.476","192.496","NA","15.041","NA","0","36",""
"15","R_10qFhOnjSKIzebU","standard","1","15","HP","12","194.521","206.524","206.853","12.332","0.329","3","39",""
"16","R_10qFhOnjSKIzebU","standard","1","16","HP","6","207.866","213.886","214.243","6.377","0.357","3","42",""
"17","R_10qFhOnjSKIzebU","standard","1","17","HP","18","215.256","233.26","233.74","18.484","0.48","3","45",""
"18","R_10qFhOnjSKIzebU","standard","1","18","HP","16","234.744","250.745","251.091","16.347","0.346","3","48",""
"19","R_10qFhOnjSKIzebU","standard","1","19","HP","6","252.106","258.12","258.529","6.423","0.409","3","51",""
"20","R_10qFhOnjSKIzebU","standard","1","20","HP","16","259.536","275.546","275.875","16.339","0.329","3","54",""
"21","R_10qFhOnjSKIzebU","standard","1","21","HP","4","276.886","280.896","281.279","4.393","0.383","3","57",""
"22","R_10qFhOnjSKIzebU","standard","1","22","HP","16","282.286","298.296","298.675","16.389","0.379","3","60",""
"23","R_10qFhOnjSKIzebU","standard","1","23","HP","8","299.696","307.707","307.989","8.293","0.282","3","63",""
"24","R_10qFhOnjSKIzebU","standard","1","24","HP","8","309.007","317.01","317.384","8.377","0.374","3","63","6513"
"25","R_10qFhOnjSKIzebU","standard","1","25","HP","20","318.396","338.41","338.707","20.311","0.297","3","66",""
"26","R_10qFhOnjSKIzebU","standard","1","26","HP","16","339.727","355.74","356.033","16.306","0.293","3","69",""
"27","R_10qFhOnjSKIzebU","standard","1","27","HP","12","357.037","369.042","369.365","12.328","0.323","3","72",""
"28","R_10qFhOnjSKIzebU","standard","1","28","HP","14","370.386","384.399","384.714","14.328","0.315","3","75",""
"29","R_10qFhOnjSKIzebU","standard","1","29","HP","20","385.717","405.726","406.032","20.315","0.306","3","78",""
"30","R_10qFhOnjSKIzebU","standard","1","30","HP","8","407.036","415.046","415.405","8.369","0.359","3","81",""
"31","R_10qFhOnjSKIzebU","standard","1","31","HP","2","416.407","418.412","419.109","2.702","0.697","3","84",""
"32","R_10qFhOnjSKIzebU","standard","1","32","HP","20","420.111","440.13","440.463","20.352","0.333","3","87",""
"33","R_10qFhOnjSKIzebU","standard","1","33","HP","18","441.466","459.468","459.777","18.311","0.309","3","90",""
"34","R_10qFhOnjSKIzebU","standard","1","34","HP","20","460.802","480.807","481.066","20.264","0.259","3","93",""
"35","R_10qFhOnjSKIzebU","standard","1","35","HP","10","482.087","492.107","492.5","10.413","0.393","3","96",""
"36","R_10qFhOnjSKIzebU","standard","1","36","HP","18","493.52","511.524","511.865","18.345","0.341","3","99",""
"37","R_10qFhOnjSKIzebU","standard","1","37","HP","4","512.867","516.887","517.319","4.452","0.432","3","102",""
"38","R_10qFhOnjSKIzebU","standard","1","38","HP","8","518.32","526.328","526.782","8.462","0.454","3","102","3900"
"39","R_10qFhOnjSKIzebU","standard","1","39","HP","12","527.789","539.801","540.252","12.463","0.451","3","105",""
"40","R_10qFhOnjSKIzebU","standard","1","40","HP","12","541.258","553.277","553.654","12.396","0.377","3","108",""
"41","R_10qFhOnjSKIzebU","standard","1","41","HP","4","554.667","558.676","559.435","4.768","0.759","3","111",""
"42","R_10qFhOnjSKIzebU","standard","1","42","HP","8","560.446","568.466","568.81","8.364","0.344","3","114",""
"43","R_10qFhOnjSKIzebU","standard","1","43","HP","10","569.827","579.831","580.157","10.33","0.326","3","117",""
"44","R_10qFhOnjSKIzebU","standard","1","44","HP","20","581.169","601.193","601.501","20.332","0.308","3","120",""
"45","R_10qFhOnjSKIzebU","standard","1","45","HP","16","602.507","618.517","618.903","16.396","0.386","3","123",""
"46","R_10qFhOnjSKIzebU","standard","1","46","HP","20","619.921","639.93","640.268","20.347","0.338","3","126",""
"47","R_10qFhOnjSKIzebU","standard","1","47","HP","4","641.29","645.317","645.727","4.437","0.41","3","129",""
"48","R_10qFhOnjSKIzebU","standard","1","48","HP","12","646.738","658.747","659.037","12.299","0.29","3","132",""
"49","R_10qFhOnjSKIzebU","standard","1","49","HP","4","660.039","664.047","664.421","4.382","0.374","3","135",""
"50","R_10qFhOnjSKIzebU","standard","1","50","HP","8","665.432","673.437","673.746","8.314","0.309","3","138",""
"51","R_10qFhOnjSKIzebU","standard","1","51","HP","6","674.757","680.767","681.111","6.354","0.344","3","141",""
"52","R_10qFhOnjSKIzebU","standard","1","52","HP","18","682.125","700.137","700.434","18.309","0.297","3","144",""
"53","R_10qFhOnjSKIzebU","standard","1","53","HP","18","701.435","719.445","719.767","18.332","0.322","3","147",""
"54","R_10qFhOnjSKIzebU","standard","1","54","HP","16","720.777","736.787","737.491","16.714","0.704","3","150",""
"55","R_10qFhOnjSKIzebU","standard","1","55","HP","2","738.507","740.51","NA","3.011","NA","0","150",""
"56","R_10qFhOnjSKIzebU","standard","1","56","HP","14","742.527","756.533","756.896","14.369","0.363","3","153",""
"57","R_10qFhOnjSKIzebU","standard","1","57","HP","8","757.907","765.922","766.49","8.583","0.568","3","156",""
"58","R_10qFhOnjSKIzebU","standard","1","58","HP","18","767.503","785.518","786.027","18.524","0.509","3","159",""
"59","R_10qFhOnjSKIzebU","standard","1","59","HP","2","787.037","789.047","789.553","2.516","0.506","3","162",""
"60","R_10qFhOnjSKIzebU","standard","1","60","HP","2","790.564","792.577","793.037","2.473","0.46","3","165",""
"61","R_10qFhOnjSKIzebU","standard","1","61","HP","2","794.047","796.054","796.458","2.411","0.404","3","168",""
"62","R_10qFhOnjSKIzebU","standard","1","62","HP","2","797.478","799.487","799.802","2.324","0.315","3","171",""
"63","R_10qFhOnjSKIzebU","standard","1","63","HP","12","800.81","812.811","813.243","12.433","0.432","3","174",""
"64","R_10qFhOnjSKIzebU","standard","1","64","HP","16","814.258","830.28","830.701","16.443","0.421","3","174","382"
"65","R_10qFhOnjSKIzebU","standard","1","65","HP","2","831.719","833.72","NA","3.007","NA","0","174",""
"66","R_10qFhOnjSKIzebU","standard","1","66","HP","12","835.739","847.744","848.074","12.335","0.33","3","177",""
"67","R_10qFhOnjSKIzebU","standard","1","67","HP","4","849.078","853.086","853.574","4.496","0.488","3","180",""
"68","R_10qFhOnjSKIzebU","standard","1","68","HP","8","854.595","862.61","862.925","8.33","0.315","3","183",""
"69","R_10qFhOnjSKIzebU","standard","1","69","HP","12","863.938","875.947","876.237","12.299","0.29","3","186",""
"70","R_10qFhOnjSKIzebU","standard","1","70","HP","8","877.25","885.259","885.588","8.338","0.329","3","189",""
"71","R_10qFhOnjSKIzebU","standard","2","1","LP","0.661783713916415","0","0.67","1.108","1.108","0.438","3","192",NA
"72","R_10qFhOnjSKIzebU","standard","2","2","LP","8.51632916846187","2.118","10.643","10.986","8.868","0.343","3","195",NA
"73","R_10qFhOnjSKIzebU","standard","2","3","LP","1.25738905644119","12.009","13.267","13.633","1.624","0.366","3","198",NA
"74","R_10qFhOnjSKIzebU","standard","2","4","LP","13.0392072382594","14.641","NaN","17.685","3.044","NaN","0","198",NA
"75","R_10qFhOnjSKIzebU","standard","2","5","LP","5.5010771219302","18.696","24.22","24.564","5.868","0.344","3","201",NA
"76","R_10qFhOnjSKIzebU","standard","2","6","LP","2.15079707022835","25.58","27.74","28.17","2.59","0.43","3","204",NA
"77","R_10qFhOnjSKIzebU","standard","2","7","LP","30","29.18","NaN","40.634","11.454","NaN","0","204",NA
"78","R_10qFhOnjSKIzebU","standard","2","8","LP","0.264713485566566","41.65","41.923","42.438","0.788","0.515","3","207",NA
"79","R_10qFhOnjSKIzebU","standard","2","9","LP","19.8235243429556","43.443","NaN","47.029","3.586","NaN","0","207",NA
"80","R_10qFhOnjSKIzebU","standard","2","10","LP","13.0392072382594","48.037","NaN","60.536","12.499","NaN","0","207",NA
"81","R_10qFhOnjSKIzebU","standard","2","11","LP","13.0392072382594","61.54","NaN","66.054","4.514","NaN","0","207",NA
"82","R_10qFhOnjSKIzebU","standard","2","12","LP","8.51632916846187","67.072","NaN","71.873","4.801","NaN","0","207",NA
"83","R_10qFhOnjSKIzebU","standard","2","13","LP","2.15079707022835","72.882","75.041","75.371","2.489","0.33","3","210",NA
"84","R_10qFhOnjSKIzebU","standard","2","14","LP","5.5010771219302","76.382","NaN","80.197","3.815","NaN","0","210",NA
"85","R_10qFhOnjSKIzebU","standard","2","15","LP","13.0392072382594","81.212","NaN","86.125","4.913","NaN","0","210",NA
"86","R_10qFhOnjSKIzebU","standard","2","16","LP","19.8235243429556","87.126","106.962","107.297","20.171","0.335","3","213",NA
"87","R_10qFhOnjSKIzebU","standard","2","17","LP","3.49090909090909","108.303","111.802","112.193","3.89","0.391","3","216",NA
"88","R_10qFhOnjSKIzebU","standard","2","18","LP","13.0392072382594","113.212","NaN","117.24","4.028","NaN","0","216",NA
"89","R_10qFhOnjSKIzebU","standard","2","19","LP","19.8235243429556","118.246","NaN","122.738","4.492","NaN","0","216",NA
"90","R_10qFhOnjSKIzebU","standard","2","20","LP","2.15079707022835","123.742","125.908","126.517","2.775","0.609","3","219",NA
"91","R_10qFhOnjSKIzebU","standard","2","21","LP","8.51632916846187","127.527","NaN","133.941","6.414","NaN","0","219",NA
"92","R_10qFhOnjSKIzebU","standard","2","22","LP","30","134.948","NaN","140.907","5.959","NaN","0","219",NA
"93","R_10qFhOnjSKIzebU","standard","2","23","LP","30","141.915","NaN","149.655","7.74","NaN","0","219",NA
"94","R_10qFhOnjSKIzebU","standard","2","24","LP","0.264713485566566","150.662","150.942","151.313","0.651","0.371","3","222",NA
"95","R_10qFhOnjSKIzebU","standard","2","25","LP","1.25738905644119","152.315","153.582","153.988","1.673","0.406","3","225",NA
"96","R_10qFhOnjSKIzebU","standard","2","26","LP","2.15079707022835","155.012","157.17","157.53","2.518","0.36","3","228",NA
"97","R_10qFhOnjSKIzebU","standard","2","27","LP","5.5010771219302","158.533","NaN","163.179","4.646","NaN","0","228",NA
"98","R_10qFhOnjSKIzebU","standard","2","28","LP","3.49090909090909","164.199","NaN","166.436","2.237","NaN","0","228",NA
"99","R_10qFhOnjSKIzebU","standard","2","29","LP","0.264713485566566","167.448","167.722","168.126","0.678","0.404","3","231",NA
"100","R_10qFhOnjSKIzebU","standard","2","30","LP","3.49090909090909","169.135","172.635","172.978","3.843","0.343","3","234",NA
"101","R_10qFhOnjSKIzebU","standard","2","31","LP","1.25738905644119","173.992","175.254","175.563","1.571","0.309","3","237",NA
"102","R_10qFhOnjSKIzebU","standard","2","32","LP","8.51632916846187","176.582","NaN","182.511","5.929","NaN","0","237",NA
"103","R_10qFhOnjSKIzebU","standard","2","33","LP","1.25738905644119","183.514","184.787","185.142","1.628","0.355","3","240",NA
"104","R_10qFhOnjSKIzebU","standard","2","34","LP","0.661783713916415","186.149","186.826","187.145","0.996","0.319","3","243",NA
"105","R_10qFhOnjSKIzebU","standard","2","35","LP","19.8235243429556","188.15","NaN","195.019","6.869","NaN","0","243",NA
"106","R_10qFhOnjSKIzebU","standard","2","36","LP","30","196.02","NaN","199.546","3.526","NaN","0","243",NA
"107","R_10qFhOnjSKIzebU","standard","2","37","LP","2.15079707022835","200.556","202.713","203.033","2.477","0.32","3","246",NA
"108","R_10qFhOnjSKIzebU","standard","2","38","LP","19.8235243429556","204.038","NaN","209.856","5.818","NaN","0","246",NA
"109","R_10qFhOnjSKIzebU","standard","2","39","LP","0.661783713916415","210.862","211.525","211.89","1.028","0.365","3","249",NA
"110","R_10qFhOnjSKIzebU","standard","2","40","LP","3.49090909090909","212.902","216.402","216.757","3.855","0.355","3","252",NA
"111","R_10qFhOnjSKIzebU","standard","2","41","LP","19.8235243429556","217.773","NaN","219.699","1.926","NaN","0","252",NA
"112","R_10qFhOnjSKIzebU","standard","2","42","LP","0.661783713916415","220.707","221.38","221.738","1.031","0.358","3","255",NA
"113","R_10qFhOnjSKIzebU","standard","2","43","LP","19.8235243429556","222.74","NaN","227.377","4.637","NaN","0","255",NA
"114","R_10qFhOnjSKIzebU","standard","2","44","LP","0.661783713916415","228.382","229.058","229.407","1.025","0.349","3","258",NA
"115","R_10qFhOnjSKIzebU","standard","2","45","LP","0.264713485566566","230.419","230.693","231.047","0.628","0.354","3","261",NA
"116","R_10qFhOnjSKIzebU","standard","2","46","LP","2.15079707022835","232.062","234.225","234.585","2.523","0.36","3","264",NA
"117","R_10qFhOnjSKIzebU","standard","2","47","LP","0.661783713916415","235.593","236.262","236.606","1.013","0.344","3","267",NA
"118","R_10qFhOnjSKIzebU","standard","2","48","LP","2.15079707022835","237.625","239.792","240.13","2.505","0.338","3","270",NA
"119","R_10qFhOnjSKIzebU","standard","2","49","LP","0.661783713916415","241.134","241.798","242.322","1.188","0.524","3","273",NA
"120","R_10qFhOnjSKIzebU","standard","2","50","LP","19.8235243429556","243.326","NaN","249.089","5.763","NaN","0","273",NA
"121","R_10qFhOnjSKIzebU","standard","2","51","LP","0.661783713916415","250.095","250.76","251.088","0.993","0.328","3","276",NA
"122","R_10qFhOnjSKIzebU","standard","2","52","LP","8.51632916846187","252.094","NaN","257.699","5.605","NaN","0","276",NA
"123","R_10qFhOnjSKIzebU","standard","2","53","LP","19.8235243429556","258.703","NaN","264.579","5.876","NaN","0","276",NA
"124","R_10qFhOnjSKIzebU","standard","2","54","LP","8.51632916846187","265.586","274.124","274.439","8.853","0.315","3","279",NA
"125","R_10qFhOnjSKIzebU","standard","2","55","LP","5.5010771219302","275.446","280.963","281.288","5.842","0.325","3","282",NA
"126","R_10qFhOnjSKIzebU","standard","2","56","LP","1.25738905644119","282.295","283.561","283.961","1.666","0.4","3","285",NA
"127","R_10qFhOnjSKIzebU","standard","2","57","LP","30","284.973","NaN","297.287","12.314","NaN","0","285",NA
"128","R_10qFhOnjSKIzebU","standard","2","58","LP","2.15079707022835","298.312","300.482","300.823","2.511","0.341","3","288",NA
"129","R_10qFhOnjSKIzebU","standard","2","59","LP","0.264713485566566","301.833","302.116","302.518","0.685","0.402","3","291",NA
"130","R_10qFhOnjSKIzebU","standard","2","60","LP","13.0392072382594","303.523","NaN","310.335","6.812","NaN","0","291",NA
"131","R_10qFhOnjSKIzebU","standard","2","61","LP","3.49090909090909","311.343","314.834","315.214","3.871","0.38","3","294",NA
"132","R_10qFhOnjSKIzebU","standard","2","62","LP","0.661783713916415","316.225","316.903","317.639","1.414","0.736","3","297",NA
"133","R_10qFhOnjSKIzebU","standard","2","63","LP","2.15079707022835","318.651","320.815","321.179","2.528","0.364","3","300",NA
"134","R_10qFhOnjSKIzebU","standard","2","64","LP","13.0392072382594","322.193","NaN","327.832","5.639","NaN","0","300",NA
"135","R_10qFhOnjSKIzebU","standard","2","65","LP","0.661783713916415","328.833","329.503","329.858","1.025","0.355","3","303",NA
"136","R_10qFhOnjSKIzebU","standard","2","66","LP","19.8235243429556","330.863","NaN","337.718","6.855","NaN","0","303",NA
"137","R_10qFhOnjSKIzebU","standard","2","67","LP","1.25738905644119","338.732","340.002","340.326","1.594","0.324","3","306",NA
"138","R_10qFhOnjSKIzebU","standard","2","68","LP","30","341.333","NaN","348.636","7.303","NaN","0","306",NA
"139","R_10qFhOnjSKIzebU","standard","2","69","LP","0.661783713916415","349.645","350.324","350.65","1.005","0.326","3","309",NA
"140","R_10qFhOnjSKIzebU","standard","2","70","LP","2.15079707022835","351.654","353.823","354.146","2.492","0.323","3","312",NA
"141","R_10qFhOnjSKIzebU","standard","2","71","LP","5.5010771219302","355.152","360.663","361.001","5.849","0.338","3","315",NA
"142","R_10qFhOnjSKIzebU","standard","2","72","LP","1.25738905644119","362.013","363.283","363.675","1.662","0.392","3","318",NA
"143","R_10qFhOnjSKIzebU","standard","2","73","LP","30","364.693","NaN","371.841","7.148","NaN","0","318",NA
"144","R_10qFhOnjSKIzebU","standard","2","74","LP","1.25738905644119","372.847","374.117","374.474","1.627","0.357","3","321",NA
"145","R_10qFhOnjSKIzebU","standard","2","75","LP","0.661783713916415","375.483","376.152","376.624","1.141","0.472","3","324",NA
"146","R_10qFhOnjSKIzebU","standard","2","76","LP","5.5010771219302","377.643","NaN","380.658","3.015","NaN","0","324",NA
"147","R_10qFhOnjSKIzebU","standard","2","77","LP","2.15079707022835","381.67","383.826","384.155","2.485","0.329","3","327",NA
"148","R_10qFhOnjSKIzebU","standard","2","78","LP","13.0392072382594","385.158","NaN","389.904","4.746","NaN","0","327",NA
"149","R_10qFhOnjSKIzebU","standard","2","79","LP","1.25738905644119","390.914","392.193","392.532","1.618","0.339","3","330",NA
"150","R_10qFhOnjSKIzebU","standard","2","80","LP","30","393.542","NaN","399.012","5.47","NaN","0","330",NA
"151","R_10qFhOnjSKIzebU","standard","2","81","LP","3.49090909090909","400.024","403.516","403.625","3.601","0.109","3","333",NA
"152","R_10qFhOnjSKIzebU","standard","2","82","LP","1.25738905644119","404.635","405.913","406.317","1.682","0.404","3","336",NA
"153","R_10qFhOnjSKIzebU","standard","2","83","LP","8.51632916846187","407.322","NaN","413.617","6.295","NaN","0","336",NA
"154","R_10qFhOnjSKIzebU","standard","2","84","LP","1.25738905644119","414.627","415.895","416.247","1.62","0.352","3","339",NA
"155","R_10qFhOnjSKIzebU","standard","2","85","LP","0.264713485566566","417.261","417.535","417.936","0.675","0.401","3","342",NA
"156","R_10qFhOnjSKIzebU","standard","2","86","LP","19.8235243429556","418.943","NaN","423.448","4.505","NaN","0","342",NA
"157","R_10qFhOnjSKIzebU","standard","2","87","LP","13.0392072382594","424.453","NaN","430.336","5.883","NaN","0","342",NA
"158","R_10qFhOnjSKIzebU","standard","2","88","LP","19.8235243429556","431.343","NaN","435.965","4.622","NaN","0","342",NA
"159","R_10qFhOnjSKIzebU","standard","2","89","LP","0.661783713916415","436.973","437.642","438.007","1.034","0.365","3","345",NA
"160","R_10qFhOnjSKIzebU","standard","2","90","LP","30","439.019","NaN","447.219","8.2","NaN","0","345",NA
"161","R_10qFhOnjSKIzebU","standard","2","91","LP","19.8235243429556","448.231","NaN","452.379","4.148","NaN","0","345",NA
"162","R_10qFhOnjSKIzebU","standard","2","92","LP","19.8235243429556","453.391","NaN","464.448","11.057","NaN","0","345",NA
"163","R_10qFhOnjSKIzebU","standard","2","93","LP","13.0392072382594","465.463","478.523","478.885","13.422","0.362","3","348",NA
"164","R_10qFhOnjSKIzebU","standard","2","94","LP","0.264713485566566","479.902","480.185","480.6","0.698","0.415","3","351",NA
"165","R_10qFhOnjSKIzebU","standard","2","95","LP","1.25738905644119","481.623","482.903","483.216","1.593","0.313","3","354",NA
"166","R_10qFhOnjSKIzebU","standard","2","96","LP","0.661783713916415","484.228","484.902","485.309","1.081","0.407","3","357",NA
"167","R_10qFhOnjSKIzebU","standard","2","97","LP","2.15079707022835","486.312","488.483","488.819","2.507","0.336","3","360",NA
"168","R_10qFhOnjSKIzebU","standard","2","98","LP","13.0392072382594","489.823","NaN","498.449","8.626","NaN","0","360",NA
"169","R_10qFhOnjSKIzebU","standard","2","99","LP","3.49090909090909","499.46","502.954","503.331","3.871","0.377","3","363",NA
"170","R_10qFhOnjSKIzebU","standard","2","100","LP","13.0392072382594","504.337","NaN","510.105","5.768","NaN","0","363",NA
"171","R_10qFhOnjSKIzebU","standard","2","101","LP","2.15079707022835","511.124","513.293","513.649","2.525","0.356","3","366",NA
"172","R_10qFhOnjSKIzebU","standard","2","102","LP","8.51632916846187","514.653","NaN","519.031","4.378","NaN","0","366",NA
"173","R_10qFhOnjSKIzebU","standard","2","103","LP","19.8235243429556","520.039","NaN","526.373","6.334","NaN","0","366",NA
"174","R_10qFhOnjSKIzebU","standard","2","104","LP","0.264713485566566","527.396","527.673","528.073","0.677","0.4","3","369",NA
"175","R_10qFhOnjSKIzebU","standard","2","105","LP","0.661783713916415","529.093","529.763","530.157","1.064","0.394","3","372",NA
"176","R_10qFhOnjSKIzebU","standard","2","106","LP","8.51632916846187","531.173","NaN","535.572","4.399","NaN","0","372",NA
"177","R_10qFhOnjSKIzebU","standard","2","107","LP","5.5010771219302","536.573","NaN","541.08","4.507","NaN","0","372",NA
"178","R_10qFhOnjSKIzebU","standard","2","108","LP","3.49090909090909","542.093","545.599","545.931","3.838","0.332","3","375",NA
"179","R_10qFhOnjSKIzebU","standard","2","109","LP","5.5010771219302","546.94","552.453","552.781","5.841","0.328","3","378",NA
"180","R_10qFhOnjSKIzebU","standard","2","110","LP","8.51632916846187","553.803","NaN","557.175","3.372","NaN","0","378",NA
"181","R_10qFhOnjSKIzebU","standard","2","111","LP","1.25738905644119","558.183","559.443","559.788","1.605","0.345","3","381",NA
"182","R_10qFhOnjSKIzebU","standard","2","112","LP","3.49090909090909","560.803","564.303","564.556","3.753","0.253","3","384",NA
"183","R_10qFhOnjSKIzebU","standard","2","113","LP","3.49090909090909","565.563","569.062","569.379","3.816","0.317","3","387",NA
"184","R_10qFhOnjSKIzebU","standard","2","114","LP","8.51632916846187","570.396","NaN","575.095","4.699","NaN","0","387",NA
"185","R_10qFhOnjSKIzebU","standard","2","115","LP","2.15079707022835","576.111","578.273","578.576","2.465","0.303","3","390",NA
"186","R_10qFhOnjSKIzebU","standard","2","116","LP","3.49090909090909","579.578","583.083","583.128","3.55","0.045","3","393",NA
"187","R_10qFhOnjSKIzebU","standard","2","117","LP","3.49090909090909","584.137","NaN","587.392","3.255","NaN","0","393",NA
"188","R_10qFhOnjSKIzebU","standard","2","118","LP","2.15079707022835","588.403","590.563","590.951","2.548","0.388","3","396",NA
"189","R_10qFhOnjSKIzebU","standard","2","119","LP","19.8235243429556","591.963","NaN","594.898","2.935","NaN","0","396",NA
"190","R_10qFhOnjSKIzebU","standard","2","120","LP","2.15079707022835","595.913","598.083","598.449","2.536","0.366","3","399",NA
