"","subject_id","condition","n_block","n_trialIdx","f_timing_condition","n_scheduled_delay","n_trial_start_time","n_rewarded_time_fin","n_sell_time_fin","n_time_waited_fin","RT_fin","n_trial_earnings_fin","n_total_earnings_fin","keypress_times"
"1","R_11jx8Pysned9dYc","standard","1","1","HP","2","0.001","2.006","2.512","2.511","0.506","3","3",""
"2","R_11jx8Pysned9dYc","standard","1","2","HP","4","3.518","7.526","7.791","4.273","0.265","3","6",""
"3","R_11jx8Pysned9dYc","standard","1","3","HP","10","8.798","18.806","19.128","10.33","0.322","3","9",""
"4","R_11jx8Pysned9dYc","standard","1","4","HP","18","20.134","38.142","38.439","18.305","0.297","3","12",""
"5","R_11jx8Pysned9dYc","standard","1","5","HP","20","39.446","59.454","59.849","20.403","0.395","3","15",""
"6","R_11jx8Pysned9dYc","standard","1","6","HP","16","60.854","76.862","77.128","16.274","0.266","3","18",""
"7","R_11jx8Pysned9dYc","standard","1","7","HP","12","78.134","90.142","90.647","12.513","0.505","3","21",""
"8","R_11jx8Pysned9dYc","standard","1","8","HP","16","91.654","107.662","107.912","16.258","0.25","3","24",""
"9","R_11jx8Pysned9dYc","standard","1","9","HP","16","108.918","124.925","125.216","16.298","0.291","3","27",""
"10","R_11jx8Pysned9dYc","standard","1","10","HP","16","126.222","142.23","142.519","16.297","0.289","3","30",""
"11","R_11jx8Pysned9dYc","standard","1","11","HP","8","143.525","151.526","151.872","8.347","0.346","3","33",""
"12","R_11jx8Pysned9dYc","standard","1","12","HP","14","152.878","166.886","NA","15.016","NA","0","33",""
"13","R_11jx8Pysned9dYc","standard","1","13","HP","20","168.902","188.903","189.208","20.306","0.305","3","36",""
"14","R_11jx8Pysned9dYc","standard","1","14","HP","4","190.214","194.222","194.991","4.777","0.769","3","39",""
"15","R_11jx8Pysned9dYc","standard","1","15","HP","12","195.998","208.006","208.36","12.362","0.354","3","42",""
"16","R_11jx8Pysned9dYc","standard","1","16","HP","10","209.366","219.374","219.728","10.362","0.354","3","45",""
"17","R_11jx8Pysned9dYc","standard","1","17","HP","12","220.734","232.742","233.056","12.322","0.314","3","48",""
"18","R_11jx8Pysned9dYc","standard","1","18","HP","14","234.062","248.07","248.392","14.33","0.322","3","51",""
"19","R_11jx8Pysned9dYc","standard","1","19","HP","8","249.398","257.406","257.912","8.514","0.506","3","54",""
"20","R_11jx8Pysned9dYc","standard","1","20","HP","2","258.918","260.925","261.633","2.715","0.708","3","57",""
"21","R_11jx8Pysned9dYc","standard","1","21","HP","2","262.638","264.642","265.048","2.41","0.406","3","60",""
"22","R_11jx8Pysned9dYc","standard","1","22","HP","12","266.054","278.062","278.424","12.37","0.362","3","63",""
"23","R_11jx8Pysned9dYc","standard","1","23","HP","8","279.43","287.432","287.952","8.522","0.52","3","66",""
"24","R_11jx8Pysned9dYc","standard","1","24","HP","2","288.958","290.966","291.608","2.65","0.642","3","69",""
"25","R_11jx8Pysned9dYc","standard","1","25","HP","16","292.614","308.622","308.936","16.322","0.314","3","72",""
"26","R_11jx8Pysned9dYc","standard","1","26","HP","14","309.942","323.95","NA","15.017","NA","0","69","13538"
"27","R_11jx8Pysned9dYc","standard","1","27","HP","12","325.966","337.974","338.32","12.354","0.346","3","72",""
"28","R_11jx8Pysned9dYc","standard","1","28","HP","6","339.325","345.326","345.76","6.435","0.434","3","75",""
"29","R_11jx8Pysned9dYc","standard","1","29","HP","6","346.766","352.774","353.152","6.386","0.378","3","78",""
"30","R_11jx8Pysned9dYc","standard","1","30","HP","14","354.158","368.166","368.792","14.634","0.626","3","81",""
"31","R_11jx8Pysned9dYc","standard","1","31","HP","2","369.798","371.806","372.36","2.562","0.554","3","84",""
"32","R_11jx8Pysned9dYc","standard","1","32","HP","8","373.366","381.374","381.729","8.363","0.355","3","87",""
"33","R_11jx8Pysned9dYc","standard","1","33","HP","2","382.734","384.742","385.256","2.522","0.514","3","90",""
"34","R_11jx8Pysned9dYc","standard","1","34","HP","14","386.262","400.27","400.592","14.33","0.322","3","93",""
"35","R_11jx8Pysned9dYc","standard","1","35","HP","4","401.598","405.606","406.064","4.466","0.458","3","96",""
"36","R_11jx8Pysned9dYc","standard","1","36","HP","4","407.07","411.078","411.481","4.411","0.403","3","99",""
"37","R_11jx8Pysned9dYc","standard","1","37","HP","20","412.486","432.494","432.817","20.331","0.323","3","102",""
"38","R_11jx8Pysned9dYc","standard","1","38","HP","4","433.822","437.83","438.657","4.835","0.827","3","105",""
"39","R_11jx8Pysned9dYc","standard","1","39","HP","2","439.662","441.67","NA","3.017","NA","0","105",""
"40","R_11jx8Pysned9dYc","standard","1","40","HP","10","443.686","453.694","454.034","10.348","0.34","3","108",""
"41","R_11jx8Pysned9dYc","standard","1","41","HP","20","455.038","475.041","475.377","20.339","0.336","3","111",""
"42","R_11jx8Pysned9dYc","standard","1","42","HP","14","476.382","490.39","490.777","14.395","0.387","3","114",""
"43","R_11jx8Pysned9dYc","standard","1","43","HP","6","491.782","497.79","498.081","6.299","0.291","3","117",""
"44","R_11jx8Pysned9dYc","standard","1","44","HP","2","499.086","501.094","502.041","2.955","0.947","3","120",""
"45","R_11jx8Pysned9dYc","standard","1","45","HP","6","503.046","509.054","509.353","6.307","0.299","3","123",""
"46","R_11jx8Pysned9dYc","standard","1","46","HP","6","510.358","516.366","516.865","6.507","0.499","3","126",""
"47","R_11jx8Pysned9dYc","standard","1","47","HP","2","517.87","519.878","520.329","2.459","0.451","3","129",""
"48","R_11jx8Pysned9dYc","standard","1","48","HP","2","521.334","523.342","523.697","2.363","0.355","3","132",""
"49","R_11jx8Pysned9dYc","standard","1","49","HP","16","524.702","540.703","541.097","16.395","0.394","3","135",""
"50","R_11jx8Pysned9dYc","standard","1","50","HP","20","542.102","562.103","562.465","20.363","0.362","3","138",""
"51","R_11jx8Pysned9dYc","standard","1","51","HP","14","563.47","577.478","577.761","14.291","0.283","3","141",""
"52","R_11jx8Pysned9dYc","standard","1","52","HP","12","578.766","590.774","591.241","12.475","0.467","3","144",""
"53","R_11jx8Pysned9dYc","standard","1","53","HP","18","592.246","610.254","610.619","18.373","0.365","3","147",""
"54","R_11jx8Pysned9dYc","standard","1","54","HP","16","611.622","627.63","628.003","16.381","0.373","3","150",""
"55","R_11jx8Pysned9dYc","standard","1","55","HP","14","629.006","643.007","643.354","14.348","0.347","3","153",""
"56","R_11jx8Pysned9dYc","standard","1","56","HP","16","644.358","660.366","660.819","16.461","0.453","3","156",""
"57","R_11jx8Pysned9dYc","standard","1","57","HP","16","661.822","677.83","678.115","16.293","0.285","3","159",""
"58","R_11jx8Pysned9dYc","standard","1","58","HP","14","679.118","693.123","693.482","14.364","0.359","3","162",""
"59","R_11jx8Pysned9dYc","standard","1","59","HP","6","694.486","700.494","700.914","6.428","0.42","3","165",""
"60","R_11jx8Pysned9dYc","standard","1","60","HP","18","701.918","719.923","720.419","18.501","0.496","3","168",""
"61","R_11jx8Pysned9dYc","standard","1","61","HP","10","721.422","731.43","732.019","10.597","0.589","3","171",""
"62","R_11jx8Pysned9dYc","standard","1","62","HP","4","733.022","737.03","NA","5.017","NA","0","171",""
"63","R_11jx8Pysned9dYc","standard","1","63","HP","20","739.04","759.046","759.458","20.418","0.412","3","174",""
"64","R_11jx8Pysned9dYc","standard","1","64","HP","10","760.462","770.47","770.732","10.27","0.262","3","177",""
"65","R_11jx8Pysned9dYc","standard","1","65","HP","12","771.734","783.742","784.315","12.581","0.573","3","180",""
"66","R_11jx8Pysned9dYc","standard","1","66","HP","8","785.318","793.323","793.706","8.388","0.383","3","183",""
"67","R_11jx8Pysned9dYc","standard","1","67","HP","16","794.71","810.718","811.042","16.332","0.324","3","186",""
"68","R_11jx8Pysned9dYc","standard","1","68","HP","18","812.046","830.054","830.338","18.292","0.284","3","189",""
"69","R_11jx8Pysned9dYc","standard","1","69","HP","2","831.342","833.35","834.066","2.724","0.716","3","192",""
"70","R_11jx8Pysned9dYc","standard","1","70","HP","8","835.07","843.078","843.547","8.477","0.469","3","195",""
"71","R_11jx8Pysned9dYc","standard","1","71","HP","4","844.55","848.558","NA","5.017","NA","0","195",""
"72","R_11jx8Pysned9dYc","standard","1","72","HP","12","850.574","862.582","862.978","12.404","0.396","3","198",""
"73","R_11jx8Pysned9dYc","standard","1","73","HP","12","863.982","875.99","876.283","12.301","0.293","3","201",""
"74","R_11jx8Pysned9dYc","standard","1","74","HP","20","877.286","897.294","897.755","20.469","0.461","3","204",""
"75","R_11jx8Pysned9dYc","standard","2","1","LP","5.5010771219302","0","5.502","5.867","5.867","0.365","3","207",NA
"76","R_11jx8Pysned9dYc","standard","2","2","LP","30","6.869","NaN","12.57","5.701","NaN","0","207",NA
"77","R_11jx8Pysned9dYc","standard","2","3","LP","13.0392072382594","13.573","NaN","21.547","7.974","NaN","0","207",NA
"78","R_11jx8Pysned9dYc","standard","2","4","LP","8.51632916846187","22.549","31.069","31.538","8.989","0.469","3","210",NA
"79","R_11jx8Pysned9dYc","standard","2","5","LP","3.49090909090909","32.541","36.037",NA,"4.503",NA,"0","210",NA
"80","R_11jx8Pysned9dYc","standard","2","6","LP","5.5010771219302","38.045","43.549","43.915","5.87","0.366","3","213",NA
"81","R_11jx8Pysned9dYc","standard","2","7","LP","5.5010771219302","44.917","50.421","51.059","6.142","0.638","3","216",NA
"82","R_11jx8Pysned9dYc","standard","2","8","LP","5.5010771219302","52.061","57.565","57.994","5.933","0.429","3","219",NA
"83","R_11jx8Pysned9dYc","standard","2","9","LP","8.51632916846187","58.997","67.517","67.939","8.942","0.422","3","222",NA
"84","R_11jx8Pysned9dYc","standard","2","10","LP","30","68.941","NaN","79.475","10.534","NaN","0","222",NA
"85","R_11jx8Pysned9dYc","standard","2","11","LP","1.25738905644119","80.477","81.741",NA,"2.272",NA,"0","222",NA
"86","R_11jx8Pysned9dYc","standard","2","12","LP","2.15079707022835","83.757","85.909","86.706","2.949","0.797","3","225",NA
"87","R_11jx8Pysned9dYc","standard","2","13","LP","8.51632916846187","87.709","96.226","96.916","9.207","0.69","3","228",NA
"88","R_11jx8Pysned9dYc","standard","2","14","LP","8.51632916846187","97.917","106.437","106.883","8.966","0.446","3","231",NA
"89","R_11jx8Pysned9dYc","standard","2","15","LP","13.0392072382594","107.885","NaN","119.228","11.343","NaN","0","231",NA
"90","R_11jx8Pysned9dYc","standard","2","16","LP","5.5010771219302","120.237","125.741","126.395","6.158","0.654","3","234",NA
"91","R_11jx8Pysned9dYc","standard","2","17","LP","0.661783713916415","127.397","128.061","128.971","1.574","0.91","3","237",NA
"92","R_11jx8Pysned9dYc","standard","2","18","LP","2.15079707022835","129.973","132.125","132.643","2.67","0.518","3","240",NA
"93","R_11jx8Pysned9dYc","standard","2","19","LP","8.51632916846187","133.645","142.165","142.571","8.926","0.406","3","243",NA
"94","R_11jx8Pysned9dYc","standard","2","20","LP","0.661783713916415","143.573","144.237","144.795","1.222","0.558","3","246",NA
"95","R_11jx8Pysned9dYc","standard","2","21","LP","19.8235243429556","145.797","NaN","157.667","11.87","NaN","0","246",NA
"96","R_11jx8Pysned9dYc","standard","2","22","LP","8.51632916846187","158.669","167.189","167.532","8.863","0.343","3","249",NA
"97","R_11jx8Pysned9dYc","standard","2","23","LP","8.51632916846187","168.533","177.053","177.539","9.006","0.486","3","252",NA
"98","R_11jx8Pysned9dYc","standard","2","24","LP","2.15079707022835","178.541","180.693","181.075","2.534","0.382","3","255",NA
"99","R_11jx8Pysned9dYc","standard","2","25","LP","5.5010771219302","182.077","187.581","188.075","5.998","0.494","3","258",NA
"100","R_11jx8Pysned9dYc","standard","2","26","LP","13.0392072382594","189.077","NaN","199.589","10.512","NaN","0","258",NA
"101","R_11jx8Pysned9dYc","standard","2","27","LP","0.661783713916415","200.597","201.261",NA,"1.672",NA,"0","258",NA
"102","R_11jx8Pysned9dYc","standard","2","28","LP","8.51632916846187","203.277","211.797","212.187","8.91","0.39","3","261",NA
"103","R_11jx8Pysned9dYc","standard","2","29","LP","8.51632916846187","213.189","221.709","222.075","8.886","0.366","3","264",NA
"104","R_11jx8Pysned9dYc","standard","2","30","LP","5.5010771219302","223.077","228.581","229.012","5.935","0.431","3","267",NA
"105","R_11jx8Pysned9dYc","standard","2","31","LP","30","230.021","NaN","241.435","11.414","NaN","0","267",NA
"106","R_11jx8Pysned9dYc","standard","2","32","LP","30","242.437","NaN","252.251","9.814","NaN","0","267",NA
"107","R_11jx8Pysned9dYc","standard","2","33","LP","3.49090909090909","253.253","256.749","257.356","4.103","0.607","3","270",NA
"108","R_11jx8Pysned9dYc","standard","2","34","LP","5.5010771219302","258.365","263.869","264.396","6.031","0.527","3","273",NA
"109","R_11jx8Pysned9dYc","standard","2","35","LP","3.49090909090909","265.397","268.893","268.963","3.566","0.07","3","276",NA
"110","R_11jx8Pysned9dYc","standard","2","36","LP","2.15079707022835","269.965","272.117","272.756","2.791","0.639","3","279",NA
"111","R_11jx8Pysned9dYc","standard","2","37","LP","2.15079707022835","273.757","275.909","276.413","2.656","0.504","3","282",NA
"112","R_11jx8Pysned9dYc","standard","2","38","LP","30","277.421","NaN","287.396","9.975","NaN","0","282",NA
"113","R_11jx8Pysned9dYc","standard","2","39","LP","0.661783713916415","288.397","289.061","289.779","1.382","0.718","3","285",NA
"114","R_11jx8Pysned9dYc","standard","2","40","LP","8.51632916846187","290.781","299.301","299.66","8.879","0.359","3","288",NA
"115","R_11jx8Pysned9dYc","standard","2","41","LP","0.264713485566566","300.661","300.933","301.683","1.022","0.75","3","291",NA
"116","R_11jx8Pysned9dYc","standard","2","42","LP","5.5010771219302","302.685","308.189","308.596","5.911","0.407","3","294",NA
"117","R_11jx8Pysned9dYc","standard","2","43","LP","5.5010771219302","309.597","315.101","315.86","6.263","0.759","3","297",NA
"118","R_11jx8Pysned9dYc","standard","2","44","LP","30","316.861","NaN","325.948","9.087","NaN","0","297",NA
"119","R_11jx8Pysned9dYc","standard","2","45","LP","0.661783713916415","326.949","327.613","328.243","1.294","0.63","3","300",NA
"120","R_11jx8Pysned9dYc","standard","2","46","LP","0.264713485566566","329.245","329.517","330.228","0.983","0.711","3","303",NA
"121","R_11jx8Pysned9dYc","standard","2","47","LP","13.0392072382594","331.229","NaN","341.388","10.159","NaN","0","303",NA
"122","R_11jx8Pysned9dYc","standard","2","48","LP","5.5010771219302","342.389","347.893","348.356","5.967","0.463","3","306",NA
"123","R_11jx8Pysned9dYc","standard","2","49","LP","30","349.357","NaN","358.884","9.527","NaN","0","306",NA
"124","R_11jx8Pysned9dYc","standard","2","50","LP","2.15079707022835","359.885","362.037","362.46","2.575","0.423","3","309",NA
"125","R_11jx8Pysned9dYc","standard","2","51","LP","19.8235243429556","363.461","NaN","372.9","9.439","NaN","0","309",NA
"126","R_11jx8Pysned9dYc","standard","2","52","LP","30","373.901","NaN","383.636","9.735","NaN","0","309",NA
"127","R_11jx8Pysned9dYc","standard","2","53","LP","0.661783713916415","384.645","385.309","386.172","1.527","0.863","3","312",NA
"128","R_11jx8Pysned9dYc","standard","2","54","LP","1.25738905644119","387.173","388.431","388.812","1.639","0.381","3","315",NA
"129","R_11jx8Pysned9dYc","standard","2","55","LP","0.264713485566566","389.821","390.093","390.5","0.679","0.407","3","318",NA
"130","R_11jx8Pysned9dYc","standard","2","56","LP","2.15079707022835","391.501","393.653","394.02","2.519","0.367","3","321",NA
"131","R_11jx8Pysned9dYc","standard","2","57","LP","5.5010771219302","395.021","400.525","401.14","6.119","0.615","3","324",NA
"132","R_11jx8Pysned9dYc","standard","2","58","LP","8.51632916846187","402.141","NaN","406.34","4.199","NaN","0","324",NA
"133","R_11jx8Pysned9dYc","standard","2","59","LP","1.25738905644119","407.341","408.605","409.084","1.743","0.479","3","327",NA
"134","R_11jx8Pysned9dYc","standard","2","60","LP","30","410.085","NaN","419.476","9.391","NaN","0","327",NA
"135","R_11jx8Pysned9dYc","standard","2","61","LP","3.49090909090909","420.477","423.973","424.34","3.863","0.367","3","330",NA
"136","R_11jx8Pysned9dYc","standard","2","62","LP","8.51632916846187","425.341","NaN","433.348","8.007","NaN","0","330",NA
"137","R_11jx8Pysned9dYc","standard","2","63","LP","3.49090909090909","434.349","437.845","438.204","3.855","0.359","3","333",NA
"138","R_11jx8Pysned9dYc","standard","2","64","LP","30","439.205","NaN","448.22","9.015","NaN","0","333",NA
"139","R_11jx8Pysned9dYc","standard","2","65","LP","3.49090909090909","449.221","452.717","453.156","3.935","0.439","3","336",NA
"140","R_11jx8Pysned9dYc","standard","2","66","LP","13.0392072382594","454.157","NaN","463.54","9.383","NaN","0","336",NA
"141","R_11jx8Pysned9dYc","standard","2","67","LP","0.661783713916415","464.541","465.205","465.62","1.079","0.415","3","339",NA
"142","R_11jx8Pysned9dYc","standard","2","68","LP","5.5010771219302","466.621","472.124","472.676","6.055","0.552","3","342",NA
"143","R_11jx8Pysned9dYc","standard","2","69","LP","0.264713485566566","473.677","473.949","474.557","0.88","0.608","3","345",NA
"144","R_11jx8Pysned9dYc","standard","2","70","LP","1.25738905644119","475.565","476.829","477.42","1.855","0.591","3","348",NA
"145","R_11jx8Pysned9dYc","standard","2","71","LP","30","478.421","NaN","485.316","6.895","NaN","0","348",NA
"146","R_11jx8Pysned9dYc","standard","2","72","LP","0.264713485566566","486.317","486.589","487.14","0.823","0.551","3","351",NA
"147","R_11jx8Pysned9dYc","standard","2","73","LP","0.264713485566566","488.141","488.406","488.82","0.679","0.414","3","354",NA
"148","R_11jx8Pysned9dYc","standard","2","74","LP","8.51632916846187","489.821","NaN","496.82","6.999","NaN","0","354",NA
"149","R_11jx8Pysned9dYc","standard","2","75","LP","19.8235243429556","497.829","NaN","504.236","6.407","NaN","0","354",NA
"150","R_11jx8Pysned9dYc","standard","2","76","LP","3.49090909090909","505.237","508.733","509.172","3.935","0.439","3","357",NA
"151","R_11jx8Pysned9dYc","standard","2","77","LP","8.51632916846187","510.181","NaN","516.685","6.504","NaN","0","357",NA
"152","R_11jx8Pysned9dYc","standard","2","78","LP","5.5010771219302","517.693","523.197","523.621","5.928","0.424","3","360",NA
"153","R_11jx8Pysned9dYc","standard","2","79","LP","19.8235243429556","524.629","NaN","526.829","2.2","NaN","0","360",NA
"154","R_11jx8Pysned9dYc","standard","2","80","LP","0.264713485566566","527.832","528.101","528.684","0.852","0.583","3","363",NA
"155","R_11jx8Pysned9dYc","standard","2","81","LP","0.264713485566566","529.693","529.965","530.396","0.703","0.431","3","366",NA
"156","R_11jx8Pysned9dYc","standard","2","82","LP","1.25738905644119","531.405","532.669","533.116","1.711","0.447","3","369",NA
"157","R_11jx8Pysned9dYc","standard","2","83","LP","19.8235243429556","534.117","NaN","541.013","6.896","NaN","0","369",NA
"158","R_11jx8Pysned9dYc","standard","2","84","LP","19.8235243429556","542.021","NaN","548.42","6.399","NaN","0","369",NA
"159","R_11jx8Pysned9dYc","standard","2","85","LP","0.661783713916415","549.421","550.085","550.764","1.343","0.679","3","372",NA
"160","R_11jx8Pysned9dYc","standard","2","86","LP","3.49090909090909","551.765","555.261","555.597","3.832","0.336","3","375",NA
"161","R_11jx8Pysned9dYc","standard","2","87","LP","2.15079707022835","556.597","558.749","559.133","2.536","0.384","3","378",NA
"162","R_11jx8Pysned9dYc","standard","2","88","LP","5.5010771219302","560.141","565.645","566.135","5.994","0.49","3","381",NA
"163","R_11jx8Pysned9dYc","standard","2","89","LP","8.51632916846187","567.141","NaN","573.949","6.808","NaN","0","381",NA
"164","R_11jx8Pysned9dYc","standard","2","90","LP","3.49090909090909","574.957","578.453","578.853","3.896","0.4","3","384",NA
"165","R_11jx8Pysned9dYc","standard","2","91","LP","5.5010771219302","579.861","585.365","585.726","5.865","0.361","3","387",NA
"166","R_11jx8Pysned9dYc","standard","2","92","LP","0.661783713916415","586.734","587.397","588.205","1.471","0.808","3","390",NA
"167","R_11jx8Pysned9dYc","standard","2","93","LP","1.25738905644119","589.206","590.469","590.853","1.647","0.384","3","393",NA
"168","R_11jx8Pysned9dYc","standard","2","94","LP","2.15079707022835","591.861","594.013","594.437","2.576","0.424","3","396",NA
