"","subject_id","condition","n_block","n_trialIdx","f_timing_condition","n_scheduled_delay","n_trial_start_time","n_rewarded_time_fin","n_sell_time_fin","n_time_waited_fin","RT_fin","n_trial_earnings_fin","n_total_earnings_fin","keypress_times"
"1","R_12mcWv7G7DAUfS7","standard","1","1","HP","12","0.002","12.019","12.838","12.836","0.819","3","3",""
"2","R_12mcWv7G7DAUfS7","standard","1","2","HP","18","13.841","31.872","32.438","18.597","0.566","3","6",""
"3","R_12mcWv7G7DAUfS7","standard","1","3","HP","2","33.44","35.448","NA","3.021","NA","0","6",""
"4","R_12mcWv7G7DAUfS7","standard","1","4","HP","8","37.466","45.48","45.997","8.531","0.517","3","9",""
"5","R_12mcWv7G7DAUfS7","standard","1","5","HP","2","47","49.017","NA","3.022","NA","0","9",""
"6","R_12mcWv7G7DAUfS7","standard","1","6","HP","20","51.024","71.039","71.708","20.684","0.669","3","12",""
"7","R_12mcWv7G7DAUfS7","standard","1","7","HP","16","72.713","88.719","89.395","16.682","0.676","3","15",""
"8","R_12mcWv7G7DAUfS7","standard","1","8","HP","14","90.465","104.476","105.176","14.711","0.7","3","18",""
"9","R_12mcWv7G7DAUfS7","standard","1","9","HP","12","106.195","118.199","118.914","12.719","0.715","3","21",""
"10","R_12mcWv7G7DAUfS7","standard","1","10","HP","4","119.919","123.925","NA","5.007","NA","0","21",""
"11","R_12mcWv7G7DAUfS7","standard","1","11","HP","10","126.032","136.055","NA","11.045","NA","0","21",""
"12","R_12mcWv7G7DAUfS7","standard","1","12","HP","20","138.078","158.138","158.727","20.649","0.589","3","24",""
"13","R_12mcWv7G7DAUfS7","standard","1","13","HP","2","159.735","161.854","NA","3.121","NA","0","24",""
"14","R_12mcWv7G7DAUfS7","standard","1","14","HP","16","163.873","179.888","180.539","16.666","0.651","3","27",""
"15","R_12mcWv7G7DAUfS7","standard","1","15","HP","6","181.544","187.552","188.222","6.678","0.67","3","30",""
"16","R_12mcWv7G7DAUfS7","standard","1","16","HP","12","189.346","201.351","202.032","12.686","0.681","3","33",""
"17","R_12mcWv7G7DAUfS7","standard","1","17","HP","2","203.041","205.042","205.941","2.9","0.899","3","36",""
"18","R_12mcWv7G7DAUfS7","standard","1","18","HP","12","206.966","218.967","219.656","12.69","0.689","3","39",""
"19","R_12mcWv7G7DAUfS7","standard","1","19","HP","16","220.657","236.67","237.303","16.646","0.633","3","42",""
"20","R_12mcWv7G7DAUfS7","standard","1","20","HP","16","238.305","254.317","255.045","16.74","0.728","3","45",""
"21","R_12mcWv7G7DAUfS7","standard","1","21","HP","16","256.056","272.063","272.773","16.717","0.71","3","48",""
"22","R_12mcWv7G7DAUfS7","standard","1","22","HP","20","273.799","293.808","294.379","20.58","0.571","3","51",""
"23","R_12mcWv7G7DAUfS7","standard","1","23","HP","6","295.398","301.419","302.054","6.656","0.635","3","54",""
"24","R_12mcWv7G7DAUfS7","standard","1","24","HP","4","303.866","308.587","309.403","5.537","0.816","3","57",""
"25","R_12mcWv7G7DAUfS7","standard","1","25","HP","18","310.483","328.498","329.279","18.796","0.781","3","57","5807"
"26","R_12mcWv7G7DAUfS7","standard","1","26","HP","12","330.589","342.592","343.298","12.709","0.706","3","60",""
"27","R_12mcWv7G7DAUfS7","standard","1","27","HP","18","344.584","362.59","363.281","18.697","0.691","3","63",""
"28","R_12mcWv7G7DAUfS7","standard","1","28","HP","18","364.334","382.343","382.961","18.627","0.618","3","66",""
"29","R_12mcWv7G7DAUfS7","standard","1","29","HP","16","384.583","400.598","401.18","16.597","0.582","3","69",""
"30","R_12mcWv7G7DAUfS7","standard","1","30","HP","10","402.193","412.199","412.919","10.726","0.72","3","72",""
"31","R_12mcWv7G7DAUfS7","standard","1","31","HP","12","413.928","426.509","427.155","13.227","0.646","3","75",""
"32","R_12mcWv7G7DAUfS7","standard","1","32","HP","8","428.158","436.583","437.398","9.24","0.815","3","78",""
"33","R_12mcWv7G7DAUfS7","standard","1","33","HP","6","439.634","445.639","446.36","6.726","0.721","3","81",""
"34","R_12mcWv7G7DAUfS7","standard","1","34","HP","14","447.584","461.591","462.338","14.754","0.747","3","84",""
"35","R_12mcWv7G7DAUfS7","standard","1","35","HP","8","463.586","471.592","NA","9.015","NA","0","84",""
"36","R_12mcWv7G7DAUfS7","standard","1","36","HP","18","474.586","492.593","493.249","18.663","0.656","3","84","8643"
"37","R_12mcWv7G7DAUfS7","standard","1","37","HP","12","494.586","507.584","NA","15.019","NA","0","84",""
"38","R_12mcWv7G7DAUfS7","standard","1","38","HP","16","510.613","526.711","NA","17.536","NA","0","81","13667"
"39","R_12mcWv7G7DAUfS7","standard","1","39","HP","6","529.152","535.594","NA","7.467","NA","0","81",""
"40","R_12mcWv7G7DAUfS7","standard","1","40","HP","16","538.585","554.591","NA","17.039","NA","0","81",""
"41","R_12mcWv7G7DAUfS7","standard","1","41","HP","8","556.756","565.585","566.535","9.779","0.95","3","84",""
"42","R_12mcWv7G7DAUfS7","standard","1","42","HP","2","567.584","570.601","NA","4.879","NA","0","84",""
"43","R_12mcWv7G7DAUfS7","standard","1","43","HP","8","573.49","583.699","584.379","10.889","0.68","3","87",""
"44","R_12mcWv7G7DAUfS7","standard","1","44","HP","10","586.014","596.038","596.73","10.716","0.692","3","90",""
"45","R_12mcWv7G7DAUfS7","standard","1","45","HP","10","597.733","608.583","NA","12.853","NA","0","90",""
"46","R_12mcWv7G7DAUfS7","standard","1","46","HP","18","611.593","629.601","630.279","18.686","0.678","3","93",""
"47","R_12mcWv7G7DAUfS7","standard","1","47","HP","6","631.586","638.596","NA","8.556","NA","0","93",""
"48","R_12mcWv7G7DAUfS7","standard","1","48","HP","16","641.144","657.152","657.874","16.73","0.722","3","96",""
"49","R_12mcWv7G7DAUfS7","standard","1","49","HP","4","659.592","664.583","NA","7.181","NA","0","96",""
"50","R_12mcWv7G7DAUfS7","standard","1","50","HP","4","668.772","673.585","NA","5.824","NA","0","96",""
"51","R_12mcWv7G7DAUfS7","standard","1","51","HP","6","676.585","682.604","NA","7.901","NA","0","96",""
"52","R_12mcWv7G7DAUfS7","standard","1","52","HP","2","685.488","687.584","NA","3.213","NA","0","96",""
"53","R_12mcWv7G7DAUfS7","standard","1","53","HP","6","690.611","696.615","697.293","6.682","0.678","3","99",""
"54","R_12mcWv7G7DAUfS7","standard","1","54","HP","18","698.296","716.304","716.945","18.649","0.641","3","96","c(""7394"", ""14275"")"
"55","R_12mcWv7G7DAUfS7","standard","1","55","HP","8","718.6","727.686","NA","10.991","NA","0","96",""
"56","R_12mcWv7G7DAUfS7","standard","1","56","HP","6","732.375","738.384","739.244","6.869","0.86","3","99",""
"57","R_12mcWv7G7DAUfS7","standard","1","57","HP","4","740.47","744.614","NA","6.274","NA","0","99",""
"58","R_12mcWv7G7DAUfS7","standard","1","58","HP","8","747.957","755.96","756.719","8.762","0.759","3","102",""
"59","R_12mcWv7G7DAUfS7","standard","1","59","HP","2","763.595","766.584","NA","4.99","NA","0","102",""
"60","R_12mcWv7G7DAUfS7","standard","1","60","HP","6","769.594","777.024","NA","8.49","NA","0","99","16"
"61","R_12mcWv7G7DAUfS7","standard","1","61","HP","2","779.02","781.222","781.939","2.919","0.717","3","102",""
"62","R_12mcWv7G7DAUfS7","standard","1","62","HP","12","784.848","797.042","NA","13.218","NA","0","99","1578"
"63","R_12mcWv7G7DAUfS7","standard","1","63","HP","6","799.084","805.088","805.825","6.741","0.737","3","102",""
"64","R_12mcWv7G7DAUfS7","standard","1","64","HP","6","807.11","813.588","NA","8.485","NA","0","102",""
"65","R_12mcWv7G7DAUfS7","standard","1","65","HP","4","816.674","820.975","821.631","4.957","0.656","3","105",""
"66","R_12mcWv7G7DAUfS7","standard","1","66","HP","14","823.586","837.593","838.34","14.754","0.747","3","108",""
"67","R_12mcWv7G7DAUfS7","standard","1","67","HP","8","839.587","848.588","NA","10.999","NA","0","108",""
"68","R_12mcWv7G7DAUfS7","standard","1","68","HP","10","851.635","861.64","NA","11.006","NA","0","108",""
"69","R_12mcWv7G7DAUfS7","standard","1","69","HP","4","863.65","868.83","NA","7.034","NA","0","108",""
"70","R_12mcWv7G7DAUfS7","standard","1","70","HP","12","871.728","883.731","884.5","12.772","0.769","3","108","11840"
"71","R_12mcWv7G7DAUfS7","standard","1","71","HP","2","885.505","887.584","NA","3.083","NA","0","108",""
"72","R_12mcWv7G7DAUfS7","standard","2","1","LP","2.15079707022835","0.001","NaN","0.887","0.886","NaN","0","108",NA
"73","R_12mcWv7G7DAUfS7","standard","2","2","LP","19.8235243429556","1.896","NaN","2.568","0.672","NaN","0","108",NA
"74","R_12mcWv7G7DAUfS7","standard","2","3","LP","5.5010771219302","3.574","NaN","3.636","0.062","NaN","0","108",NA
"75","R_12mcWv7G7DAUfS7","standard","2","4","LP","2.15079707022835","4.64","NaN","4.805","0.165","NaN","0","108",NA
"76","R_12mcWv7G7DAUfS7","standard","2","5","LP","5.5010771219302","5.806","NaN","6.006","0.2","NaN","0","108",NA
"77","R_12mcWv7G7DAUfS7","standard","2","6","LP","2.15079707022835","7.007","NaN","7.094","0.087","NaN","0","108",NA
"78","R_12mcWv7G7DAUfS7","standard","2","7","LP","13.0392072382594","8.103","NaN","8.176","0.073","NaN","0","108",NA
"79","R_12mcWv7G7DAUfS7","standard","2","8","LP","1.25738905644119","9.182","NaN","9.234","0.052","NaN","0","108",NA
"80","R_12mcWv7G7DAUfS7","standard","2","9","LP","0.264713485566566","10.241","NaN","10.243","0.002","NaN","0","108",NA
"81","R_12mcWv7G7DAUfS7","standard","2","10","LP","5.5010771219302","11.247","NaN","11.307","0.06","NaN","0","108",NA
"82","R_12mcWv7G7DAUfS7","standard","2","11","LP","30","12.31","NaN","12.454","0.144","NaN","0","108",NA
"83","R_12mcWv7G7DAUfS7","standard","2","12","LP","1.25738905644119","13.463","NaN","14.468","1.005","NaN","0","108",NA
"84","R_12mcWv7G7DAUfS7","standard","2","13","LP","19.8235243429556","15.471","NaN","15.665","0.194","NaN","0","108",NA
"85","R_12mcWv7G7DAUfS7","standard","2","14","LP","2.15079707022835","16.671","NaN","16.707","0.036","NaN","0","108",NA
"86","R_12mcWv7G7DAUfS7","standard","2","15","LP","0.661783713916415","17.711","NaN","17.887","0.176","NaN","0","108",NA
"87","R_12mcWv7G7DAUfS7","standard","2","16","LP","19.8235243429556","18.894","NaN","19.084","0.19","NaN","0","108",NA
"88","R_12mcWv7G7DAUfS7","standard","2","17","LP","5.5010771219302","20.087","25.719",NA,"6.635",NA,"0","108",NA
"89","R_12mcWv7G7DAUfS7","standard","2","18","LP","2.15079707022835","27.725","NaN","28.705","0.98","NaN","0","108",NA
"90","R_12mcWv7G7DAUfS7","standard","2","19","LP","30","29.708","NaN","29.96","0.252","NaN","0","108",NA
"91","R_12mcWv7G7DAUfS7","standard","2","20","LP","5.5010771219302","30.965","NaN","31.191","0.226","NaN","0","108",NA
"92","R_12mcWv7G7DAUfS7","standard","2","21","LP","1.25738905644119","32.719","34.781","35.527","2.808","0.746","3","111",NA
"93","R_12mcWv7G7DAUfS7","standard","2","22","LP","8.51632916846187","36.535","45.724",NA,"10.192",NA,"0","111",NA
"94","R_12mcWv7G7DAUfS7","standard","2","23","LP","13.0392072382594","47.733","NaN","50.325","2.592","NaN","0","111",NA
"95","R_12mcWv7G7DAUfS7","standard","2","24","LP","2.15079707022835","51.383","NaN","51.433","0.05","NaN","0","111",NA
"96","R_12mcWv7G7DAUfS7","standard","2","25","LP","19.8235243429556","52.458","NaN","52.654","0.196","NaN","0","111",NA
"97","R_12mcWv7G7DAUfS7","standard","2","26","LP","1.25738905644119","53.655","NaN","53.903","0.248","NaN","0","111",NA
"98","R_12mcWv7G7DAUfS7","standard","2","27","LP","3.49090909090909","54.909","NaN","54.984","0.075","NaN","0","111",NA
"99","R_12mcWv7G7DAUfS7","standard","2","28","LP","3.49090909090909","56.029","NaN","56.046","0.017","NaN","0","111",NA
"100","R_12mcWv7G7DAUfS7","standard","2","29","LP","0.661783713916415","57.049","NaN","57.194","0.145","NaN","0","111",NA
"101","R_12mcWv7G7DAUfS7","standard","2","30","LP","30","58.2","NaN","58.217","0.017","NaN","0","111",NA
"102","R_12mcWv7G7DAUfS7","standard","2","31","LP","13.0392072382594","59.96","NaN","66.703","6.743","NaN","0","111",NA
"103","R_12mcWv7G7DAUfS7","standard","2","32","LP","0.661783713916415","67.703","NaN","67.793","0.09","NaN","0","111",NA
"104","R_12mcWv7G7DAUfS7","standard","2","33","LP","0.661783713916415","68.798","NaN","68.856","0.058","NaN","0","111",NA
"105","R_12mcWv7G7DAUfS7","standard","2","34","LP","13.0392072382594","69.863","NaN","69.892","0.029","NaN","0","111",NA
"106","R_12mcWv7G7DAUfS7","standard","2","35","LP","1.25738905644119","70.922","NaN","70.943","0.021","NaN","0","111",NA
"107","R_12mcWv7G7DAUfS7","standard","2","36","LP","13.0392072382594","71.951","NaN","72.061","0.11","NaN","0","111",NA
"108","R_12mcWv7G7DAUfS7","standard","2","37","LP","2.15079707022835","73.063","NaN","73.156","0.093","NaN","0","111",NA
"109","R_12mcWv7G7DAUfS7","standard","2","38","LP","1.25738905644119","74.158","NaN","74.195","0.037","NaN","0","111",NA
"110","R_12mcWv7G7DAUfS7","standard","2","39","LP","30","75.205","NaN","75.378","0.173","NaN","0","111",NA
"111","R_12mcWv7G7DAUfS7","standard","2","40","LP","5.5010771219302","76.39","81.894","82.729","6.339","0.835","3","114",NA
"112","R_12mcWv7G7DAUfS7","standard","2","41","LP","19.8235243429556","83.734","103.571",NA,"20.855",NA,"0","114",NA
"113","R_12mcWv7G7DAUfS7","standard","2","42","LP","3.49090909090909","105.602","109.109",NA,"4.508",NA,"0","114",NA
"114","R_12mcWv7G7DAUfS7","standard","2","43","LP","1.25738905644119","111.11","112.374",NA,"2.265",NA,"0","114",NA
"115","R_12mcWv7G7DAUfS7","standard","2","44","LP","19.8235243429556","114.388","134.214",NA,"20.834",NA,"0","114",NA
"116","R_12mcWv7G7DAUfS7","standard","2","45","LP","8.51632916846187","136.223","144.74",NA,"9.524",NA,"0","114",NA
"117","R_12mcWv7G7DAUfS7","standard","2","46","LP","5.5010771219302","146.751","152.254",NA,"6.512",NA,"0","114",NA
"118","R_12mcWv7G7DAUfS7","standard","2","47","LP","5.5010771219302","154.27","159.775",NA,"6.519",NA,"0","114",NA
"119","R_12mcWv7G7DAUfS7","standard","2","48","LP","2.15079707022835","161.793","163.951",NA,"3.166",NA,"0","114",NA
"120","R_12mcWv7G7DAUfS7","standard","2","49","LP","2.15079707022835","165.967","168.119",NA,"3.166",NA,"0","114",NA
"121","R_12mcWv7G7DAUfS7","standard","2","50","LP","19.8235243429556","170.135","189.969",NA,"20.84",NA,"0","114",NA
"122","R_12mcWv7G7DAUfS7","standard","2","51","LP","8.51632916846187","191.983","200.503",NA,"9.535",NA,"0","114",NA
"123","R_12mcWv7G7DAUfS7","standard","2","52","LP","30","202.519","232.526",NA,"31.008",NA,"0","114",NA
"124","R_12mcWv7G7DAUfS7","standard","2","53","LP","19.8235243429556","234.533","254.366",NA,"20.841",NA,"0","114",NA
"125","R_12mcWv7G7DAUfS7","standard","2","54","LP","13.0392072382594","256.382","269.434",NA,"14.054",NA,"0","114",NA
"126","R_12mcWv7G7DAUfS7","standard","2","55","LP","0.264713485566566","271.438","271.714",NA,"1.277",NA,"0","114",NA
"127","R_12mcWv7G7DAUfS7","standard","2","56","LP","5.5010771219302","273.717","279.221",NA,"6.51",NA,"0","114",NA
"128","R_12mcWv7G7DAUfS7","standard","2","57","LP","2.15079707022835","281.226","283.381",NA,"3.164",NA,"0","114",NA
"129","R_12mcWv7G7DAUfS7","standard","2","58","LP","0.264713485566566","285.397","285.668",NA,"1.279",NA,"0","114",NA
"130","R_12mcWv7G7DAUfS7","standard","2","59","LP","2.15079707022835","287.676","289.829",NA,"3.167",NA,"0","114",NA
"131","R_12mcWv7G7DAUfS7","standard","2","60","LP","3.49090909090909","291.845","295.34",NA,"4.518",NA,"0","114",NA
"132","R_12mcWv7G7DAUfS7","standard","2","61","LP","3.49090909090909","297.364","300.861",NA,"4.505",NA,"0","114",NA
"133","R_12mcWv7G7DAUfS7","standard","2","62","LP","3.49090909090909","302.877","306.373",NA,"4.504",NA,"0","114",NA
"134","R_12mcWv7G7DAUfS7","standard","2","63","LP","2.15079707022835","308.388","310.541",NA,"3.161",NA,"0","114",NA
"135","R_12mcWv7G7DAUfS7","standard","2","64","LP","0.661783713916415","312.556","313.22",NA,"1.736",NA,"0","114",NA
"136","R_12mcWv7G7DAUfS7","standard","2","65","LP","1.25738905644119","315.294","316.562",NA,"2.285",NA,"0","114",NA
"137","R_12mcWv7G7DAUfS7","standard","2","66","LP","3.49090909090909","318.58","322.091",NA,"4.534",NA,"0","114",NA
"138","R_12mcWv7G7DAUfS7","standard","2","67","LP","5.5010771219302","324.152","NaN","326.531","2.379","NaN","0","114",NA
"139","R_12mcWv7G7DAUfS7","standard","2","68","LP","5.5010771219302","327.532","333.036","333.849","6.317","0.813","3","117",NA
"140","R_12mcWv7G7DAUfS7","standard","2","69","LP","0.264713485566566","334.853","335.125","335.95","1.097","0.825","3","120",NA
"141","R_12mcWv7G7DAUfS7","standard","2","70","LP","8.51632916846187","336.957","345.478","346.151","9.194","0.673","3","123",NA
"142","R_12mcWv7G7DAUfS7","standard","2","71","LP","30","347.152","NaN","368.093","20.941","NaN","0","123",NA
"143","R_12mcWv7G7DAUfS7","standard","2","72","LP","2.15079707022835","369.102","371.253","371.945","2.843","0.692","3","126",NA
"144","R_12mcWv7G7DAUfS7","standard","2","73","LP","19.8235243429556","373.908","NaN","388.677","14.769","NaN","0","126",NA
"145","R_12mcWv7G7DAUfS7","standard","2","74","LP","0.661783713916415","389.686","390.35","391.058","1.372","0.708","3","129",NA
"146","R_12mcWv7G7DAUfS7","standard","2","75","LP","2.15079707022835","392.076","394.231","394.804","2.728","0.573","3","132",NA
"147","R_12mcWv7G7DAUfS7","standard","2","76","LP","13.0392072382594","395.809","NaN","400.345","4.536","NaN","0","132",NA
"148","R_12mcWv7G7DAUfS7","standard","2","77","LP","19.8235243429556","401.348","NaN","404.906","3.558","NaN","0","132",NA
"149","R_12mcWv7G7DAUfS7","standard","2","78","LP","5.5010771219302","405.909","411.41","412.074","6.165","0.664","3","135",NA
"150","R_12mcWv7G7DAUfS7","standard","2","79","LP","0.264713485566566","413.076","413.342",NA,"1.275",NA,"0","135",NA
"151","R_12mcWv7G7DAUfS7","standard","2","80","LP","30","415.356","NaN","415.932","0.576","NaN","0","135",NA
"152","R_12mcWv7G7DAUfS7","standard","2","81","LP","0.264713485566566","416.941","417.209","417.921","0.98","0.712","3","138",NA
"153","R_12mcWv7G7DAUfS7","standard","2","82","LP","30","418.925","NaN","429.029","10.104","NaN","0","138",NA
"154","R_12mcWv7G7DAUfS7","standard","2","83","LP","1.25738905644119","430.041","431.31","431.927","1.886","0.617","3","141",NA
"155","R_12mcWv7G7DAUfS7","standard","2","84","LP","2.15079707022835","432.933","435.085","435.717","2.784","0.632","3","144",NA
"156","R_12mcWv7G7DAUfS7","standard","2","85","LP","0.661783713916415","436.729","437.396","438.155","1.426","0.759","3","147",NA
"157","R_12mcWv7G7DAUfS7","standard","2","86","LP","3.49090909090909","439.156","442.652","443.37","4.214","0.718","3","150",NA
"158","R_12mcWv7G7DAUfS7","standard","2","87","LP","0.661783713916415","444.373","445.037","445.762","1.389","0.725","3","153",NA
"159","R_12mcWv7G7DAUfS7","standard","2","88","LP","1.25738905644119","446.765","448.023","448.732","1.967","0.709","3","156",NA
"160","R_12mcWv7G7DAUfS7","standard","2","89","LP","0.264713485566566","449.732","450.005","450.616","0.884","0.611","3","159",NA
"161","R_12mcWv7G7DAUfS7","standard","2","90","LP","13.0392072382594","451.621","NaN","457.813","6.192","NaN","0","159",NA
"162","R_12mcWv7G7DAUfS7","standard","2","91","LP","8.51632916846187","458.82","NaN","461.885","3.065","NaN","0","159",NA
"163","R_12mcWv7G7DAUfS7","standard","2","92","LP","0.661783713916415","462.885","463.55","464.247","1.362","0.697","3","162",NA
"164","R_12mcWv7G7DAUfS7","standard","2","93","LP","19.8235243429556","465.253","NaN","471.657","6.404","NaN","0","162",NA
"165","R_12mcWv7G7DAUfS7","standard","2","94","LP","5.5010771219302","472.722","478.226","478.844","6.122","0.618","3","165",NA
"166","R_12mcWv7G7DAUfS7","standard","2","95","LP","5.5010771219302","479.846","NaN","483.458","3.612","NaN","0","165",NA
"167","R_12mcWv7G7DAUfS7","standard","2","96","LP","19.8235243429556","484.473","NaN","489.733","5.26","NaN","0","165",NA
"168","R_12mcWv7G7DAUfS7","standard","2","97","LP","2.15079707022835","490.733","492.889","493.579","2.846","0.69","3","168",NA
"169","R_12mcWv7G7DAUfS7","standard","2","98","LP","30","494.582","NaN","503.985","9.403","NaN","0","168",NA
"170","R_12mcWv7G7DAUfS7","standard","2","99","LP","19.8235243429556","505.052","NaN","519.037","13.985","NaN","0","168",NA
"171","R_12mcWv7G7DAUfS7","standard","2","100","LP","30","520.046","NaN","530.703","10.657","NaN","0","168",NA
"172","R_12mcWv7G7DAUfS7","standard","2","101","LP","1.25738905644119","531.718","532.995",NA,"2.281",NA,"0","168",NA
"173","R_12mcWv7G7DAUfS7","standard","2","102","LP","5.5010771219302","535.021","540.536",NA,"6.675",NA,"0","168",NA
"174","R_12mcWv7G7DAUfS7","standard","2","103","LP","13.0392072382594","542.701","555.742","556.535","13.834","0.793","3","171",NA
"175","R_12mcWv7G7DAUfS7","standard","2","104","LP","2.15079707022835","557.542","559.694","560.544","3.002","0.85","3","174",NA
"176","R_12mcWv7G7DAUfS7","standard","2","105","LP","2.15079707022835","561.551","563.705","564.429","2.878","0.724","3","177",NA
"177","R_12mcWv7G7DAUfS7","standard","2","106","LP","8.51632916846187","565.43","573.946","574.554","9.124","0.608","3","180",NA
"178","R_12mcWv7G7DAUfS7","standard","2","107","LP","3.49090909090909","575.558","579.054","579.901","4.343","0.847","3","183",NA
"179","R_12mcWv7G7DAUfS7","standard","2","108","LP","13.0392072382594","580.91","NaN","587.067","6.157","NaN","0","183",NA
"180","R_12mcWv7G7DAUfS7","standard","2","109","LP","19.8235243429556","588.07","NaN","588.716","0.646","NaN","0","183",NA
"181","R_12mcWv7G7DAUfS7","standard","2","110","LP","19.8235243429556","589.736","NaN","595.097","5.361","NaN","0","183",NA
"182","R_12mcWv7G7DAUfS7","standard","2","111","LP","8.51632916846187","596.116","NaN","598.867","2.751","NaN","0","183",NA
