"","subject_id","condition","n_block","n_trialIdx","f_timing_condition","n_scheduled_delay","n_trial_start_time","n_rewarded_time_fin","n_sell_time_fin","n_time_waited_fin","RT_fin","n_trial_earnings_fin","n_total_earnings_fin","keypress_times"
"1","R_12KibgPrDOo9ll5","standard","1","1","HP","6","0.001","6.007","6.49","6.489","0.483","3","3",""
"2","R_12KibgPrDOo9ll5","standard","1","2","HP","2","7.495","9.503","10.194","2.699","0.691","3","6",""
"3","R_12KibgPrDOo9ll5","standard","1","3","HP","6","11.199","17.207","17.627","6.428","0.42","3","9",""
"4","R_12KibgPrDOo9ll5","standard","1","4","HP","18","18.631","36.64","37.018","18.387","0.378","3","12",""
"5","R_12KibgPrDOo9ll5","standard","1","5","HP","4","38.023","42.031","42.482","4.459","0.451","3","15",""
"6","R_12KibgPrDOo9ll5","standard","1","6","HP","14","43.487","57.497","57.907","14.42","0.41","3","18",""
"7","R_12KibgPrDOo9ll5","standard","1","7","HP","12","58.909","70.912","71.403","12.494","0.491","3","21",""
"8","R_12KibgPrDOo9ll5","standard","1","8","HP","4","72.407","76.412","76.914","4.507","0.502","3","24",""
"9","R_12KibgPrDOo9ll5","standard","1","9","HP","18","77.919","95.927","96.395","18.476","0.468","3","27",""
"10","R_12KibgPrDOo9ll5","standard","1","10","HP","20","97.399","117.407","117.835","20.436","0.428","3","30",""
"11","R_12KibgPrDOo9ll5","standard","1","11","HP","12","118.839","130.847","131.291","12.452","0.444","3","33",""
"12","R_12KibgPrDOo9ll5","standard","1","12","HP","18","132.295","150.303","150.779","18.484","0.476","3","36",""
"13","R_12KibgPrDOo9ll5","standard","1","13","HP","2","151.783","153.791","154.795","3.012","1.004","3","39",""
"14","R_12KibgPrDOo9ll5","standard","1","14","HP","18","155.799","173.807","174.21","18.411","0.403","3","42",""
"15","R_12KibgPrDOo9ll5","standard","1","15","HP","10","175.212","185.216","NA","11.008","NA","0","42",""
"16","R_12KibgPrDOo9ll5","standard","1","16","HP","6","187.221","193.223","193.586","6.365","0.363","3","45",""
"17","R_12KibgPrDOo9ll5","standard","1","17","HP","14","194.591","208.599","209.035","14.444","0.436","3","48",""
"18","R_12KibgPrDOo9ll5","standard","1","18","HP","6","210.039","216.046","216.53","6.491","0.484","3","51",""
"19","R_12KibgPrDOo9ll5","standard","1","19","HP","8","217.535","225.543","225.914","8.379","0.371","3","54",""
"20","R_12KibgPrDOo9ll5","standard","1","20","HP","14","226.92","240.927","241.267","14.347","0.34","3","57",""
"21","R_12KibgPrDOo9ll5","standard","1","21","HP","6","242.272","248.279","248.778","6.506","0.499","3","60",""
"22","R_12KibgPrDOo9ll5","standard","1","22","HP","8","249.783","257.791","258.203","8.42","0.412","3","63",""
"23","R_12KibgPrDOo9ll5","standard","1","23","HP","4","259.207","263.211","263.842","4.635","0.631","3","66",""
"24","R_12KibgPrDOo9ll5","standard","1","24","HP","6","264.847","270.855","271.243","6.396","0.388","3","69",""
"25","R_12KibgPrDOo9ll5","standard","1","25","HP","20","272.246","292.044","292.472","20.226","0.428","3","72",""
"26","R_12KibgPrDOo9ll5","standard","1","26","HP","8","293.477","301.485","301.968","8.491","0.483","3","75",""
"27","R_12KibgPrDOo9ll5","standard","1","27","HP","14","302.974","316.982","317.425","14.451","0.443","3","78",""
"28","R_12KibgPrDOo9ll5","standard","1","28","HP","4","318.429","322.438","322.912","4.483","0.474","3","81",""
"29","R_12KibgPrDOo9ll5","standard","1","29","HP","8","323.917","331.926","332.489","8.572","0.563","3","84",""
"30","R_12KibgPrDOo9ll5","standard","1","30","HP","12","333.493","345.502","346.009","12.516","0.507","3","87",""
"31","R_12KibgPrDOo9ll5","standard","1","31","HP","16","347.014","363.021","363.473","16.459","0.452","3","90",""
"32","R_12KibgPrDOo9ll5","standard","1","32","HP","2","364.477","366.485","367.049","2.572","0.564","3","93",""
"33","R_12KibgPrDOo9ll5","standard","1","33","HP","14","368.054","382.061","382.496","14.442","0.435","3","96",""
"34","R_12KibgPrDOo9ll5","standard","1","34","HP","8","383.498","391.509","391.952","8.454","0.443","3","99",""
"35","R_12KibgPrDOo9ll5","standard","1","35","HP","12","392.957","404.965","405.377","12.42","0.412","3","102",""
"36","R_12KibgPrDOo9ll5","standard","1","36","HP","12","406.381","418.389","418.817","12.436","0.428","3","102","6604"
"37","R_12KibgPrDOo9ll5","standard","1","37","HP","2","419.821","421.822","422.352","2.531","0.53","3","105",""
"38","R_12KibgPrDOo9ll5","standard","1","38","HP","12","423.358","435.365","435.833","12.475","0.468","3","108",""
"39","R_12KibgPrDOo9ll5","standard","1","39","HP","10","436.837","446.844","447.385","10.548","0.541","3","111",""
"40","R_12KibgPrDOo9ll5","standard","1","40","HP","20","448.389","468.396","468.857","20.468","0.461","3","114",""
"41","R_12KibgPrDOo9ll5","standard","1","41","HP","8","469.861","477.869","478.344","8.483","0.475","3","117",""
"42","R_12KibgPrDOo9ll5","standard","1","42","HP","20","479.349","499.358","499.849","20.5","0.491","3","120",""
"43","R_12KibgPrDOo9ll5","standard","1","43","HP","2","500.853","502.867","503.376","2.523","0.509","3","123",""
"44","R_12KibgPrDOo9ll5","standard","1","44","HP","12","504.393","516.397","516.937","12.544","0.54","3","126",""
"45","R_12KibgPrDOo9ll5","standard","1","45","HP","8","517.941","525.949","526.376","8.435","0.427","3","129",""
"46","R_12KibgPrDOo9ll5","standard","1","46","HP","8","527.38","535.389","535.945","8.565","0.556","3","132",""
"47","R_12KibgPrDOo9ll5","standard","1","47","HP","2","536.949","538.956","539.456","2.507","0.5","3","135",""
"48","R_12KibgPrDOo9ll5","standard","1","48","HP","12","540.461","552.469","552.872","12.411","0.403","3","138",""
"49","R_12KibgPrDOo9ll5","standard","1","49","HP","6","553.876","559.885","560.648","6.772","0.763","3","141",""
"50","R_12KibgPrDOo9ll5","standard","1","50","HP","16","561.654","577.661","578.081","16.427","0.42","3","144",""
"51","R_12KibgPrDOo9ll5","standard","1","51","HP","12","579.085","591.093","591.529","12.444","0.436","3","147",""
"52","R_12KibgPrDOo9ll5","standard","1","52","HP","2","592.533","594.542","595.056","2.523","0.514","3","150",""
"53","R_12KibgPrDOo9ll5","standard","1","53","HP","10","596.061","606.07","606.673","10.612","0.603","3","150","595"
"54","R_12KibgPrDOo9ll5","standard","1","54","HP","20","607.677","627.685","628.177","20.5","0.492","3","153",""
"55","R_12KibgPrDOo9ll5","standard","1","55","HP","4","629.181","633.19","633.728","4.547","0.538","3","156",""
"56","R_12KibgPrDOo9ll5","standard","1","56","HP","18","634.733","652.74","653.209","18.476","0.469","3","159",""
"57","R_12KibgPrDOo9ll5","standard","1","57","HP","8","654.21","662.212","662.664","8.454","0.452","3","162",""
"58","R_12KibgPrDOo9ll5","standard","1","58","HP","20","663.67","683.677","684.24","20.57","0.563","3","165",""
"59","R_12KibgPrDOo9ll5","standard","1","59","HP","8","685.244","693.252","693.712","8.468","0.46","3","168",""
"60","R_12KibgPrDOo9ll5","standard","1","60","HP","18","694.728","712.733","713.152","18.424","0.419","3","168","4329"
"61","R_12KibgPrDOo9ll5","standard","1","61","HP","20","714.169","734.173","734.608","20.439","0.435","3","171",""
"62","R_12KibgPrDOo9ll5","standard","1","62","HP","20","735.613","755.621","756.049","20.436","0.428","3","174",""
"63","R_12KibgPrDOo9ll5","standard","1","63","HP","8","757.053","765.061","765.552","8.499","0.491","3","177",""
"64","R_12KibgPrDOo9ll5","standard","1","64","HP","16","766.557","782.564","782.992","16.435","0.428","3","180",""
"65","R_12KibgPrDOo9ll5","standard","1","65","HP","16","783.998","800.001","800.521","16.523","0.52","3","183",""
"66","R_12KibgPrDOo9ll5","standard","1","66","HP","16","801.524","817.532","817.921","16.397","0.389","3","186",""
"67","R_12KibgPrDOo9ll5","standard","1","67","HP","2","818.926","820.933","821.48","2.554","0.547","3","189",""
"68","R_12KibgPrDOo9ll5","standard","1","68","HP","14","822.484","836.494","836.953","14.469","0.459","3","192",""
"69","R_12KibgPrDOo9ll5","standard","1","69","HP","8","837.957","845.965","846.664","8.707","0.699","3","195",""
"70","R_12KibgPrDOo9ll5","standard","1","70","HP","12","847.669","859.678","860.129","12.46","0.451","3","198",""
"71","R_12KibgPrDOo9ll5","standard","1","71","HP","10","861.132","871.141","871.689","10.557","0.548","3","201",""
"72","R_12KibgPrDOo9ll5","standard","1","72","HP","2","872.694","874.698","875.392","2.698","0.694","3","204",""
"73","R_12KibgPrDOo9ll5","standard","1","73","HP","20","876.398","896.403","896.897","20.499","0.494","3","207",""
"74","R_12KibgPrDOo9ll5","standard","2","1","LP","0.661783713916415","0.001","0.666","1.166","1.165","0.5","3","210",NA
"75","R_12KibgPrDOo9ll5","standard","2","2","LP","0.661783713916415","2.176","2.842","3.301","1.125","0.459","3","213",NA
"76","R_12KibgPrDOo9ll5","standard","2","3","LP","0.661783713916415","4.308","4.97","5.334","1.026","0.364","3","216",NA
"77","R_12KibgPrDOo9ll5","standard","2","4","LP","3.49090909090909","6.337","NaN","8.094","1.757","NaN","0","216",NA
"78","R_12KibgPrDOo9ll5","standard","2","5","LP","13.0392072382594","9.098","NaN","13.005","3.907","NaN","0","216",NA
"79","R_12KibgPrDOo9ll5","standard","2","6","LP","30","14.007","NaN","22.718","8.711","NaN","0","216",NA
"80","R_12KibgPrDOo9ll5","standard","2","7","LP","30","23.722","NaN","26.829","3.107","NaN","0","216",NA
"81","R_12KibgPrDOo9ll5","standard","2","8","LP","13.0392072382594","27.835","NaN","39.447","11.612","NaN","0","216",NA
"82","R_12KibgPrDOo9ll5","standard","2","9","LP","3.49090909090909","40.451","NaN","42.51","2.059","NaN","0","216",NA
"83","R_12KibgPrDOo9ll5","standard","2","10","LP","3.49090909090909","43.518","NaN","45.83","2.312","NaN","0","216",NA
"84","R_12KibgPrDOo9ll5","standard","2","11","LP","1.25738905644119","46.836","48.099","48.63","1.794","0.531","3","219",NA
"85","R_12KibgPrDOo9ll5","standard","2","12","LP","1.25738905644119","49.635","50.898","51.343","1.708","0.445","3","222",NA
"86","R_12KibgPrDOo9ll5","standard","2","13","LP","0.661783713916415","52.348","53.013","53.43","1.082","0.417","3","225",NA
"87","R_12KibgPrDOo9ll5","standard","2","14","LP","8.51632916846187","54.434","NaN","56.166","1.732","NaN","0","225",NA
"88","R_12KibgPrDOo9ll5","standard","2","15","LP","3.49090909090909","57.17","NaN","60.062","2.892","NaN","0","225",NA
"89","R_12KibgPrDOo9ll5","standard","2","16","LP","13.0392072382594","61.067","NaN","66.591","5.524","NaN","0","225",NA
"90","R_12KibgPrDOo9ll5","standard","2","17","LP","1.25738905644119","67.595","68.86","69.342","1.747","0.482","3","228",NA
"91","R_12KibgPrDOo9ll5","standard","2","18","LP","13.0392072382594","70.347","NaN","72.958","2.611","NaN","0","228",NA
"92","R_12KibgPrDOo9ll5","standard","2","19","LP","5.5010771219302","73.964","79.468","79.519","5.555","0.051","3","231",NA
"93","R_12KibgPrDOo9ll5","standard","2","20","LP","8.51632916846187","80.523","NaN","88.526","8.003","NaN","0","231",NA
"94","R_12KibgPrDOo9ll5","standard","2","21","LP","30","89.532","NaN","98.407","8.875","NaN","0","231",NA
"95","R_12KibgPrDOo9ll5","standard","2","22","LP","2.15079707022835","99.409","101.563","101.99","2.581","0.427","3","234",NA
"96","R_12KibgPrDOo9ll5","standard","2","23","LP","3.49090909090909","102.995","NaN","105.982","2.987","NaN","0","234",NA
"97","R_12KibgPrDOo9ll5","standard","2","24","LP","13.0392072382594","106.986","NaN","111.478","4.492","NaN","0","234",NA
"98","R_12KibgPrDOo9ll5","standard","2","25","LP","13.0392072382594","112.482","NaN","118.446","5.964","NaN","0","234",NA
"99","R_12KibgPrDOo9ll5","standard","2","26","LP","30","119.451","NaN","125.704","6.253","NaN","0","234",NA
"100","R_12KibgPrDOo9ll5","standard","2","27","LP","2.15079707022835","126.707","128.86","129.31","2.603","0.45","3","237",NA
"101","R_12KibgPrDOo9ll5","standard","2","28","LP","0.264713485566566","130.311","130.579","131.102","0.791","0.523","3","240",NA
"102","R_12KibgPrDOo9ll5","standard","2","29","LP","0.264713485566566","132.108","132.38","132.95","0.842","0.57","3","243",NA
"103","R_12KibgPrDOo9ll5","standard","2","30","LP","19.8235243429556","133.956","NaN","136.878","2.922","NaN","0","243",NA
"104","R_12KibgPrDOo9ll5","standard","2","31","LP","3.49090909090909","137.883","NaN","140.462","2.579","NaN","0","243",NA
"105","R_12KibgPrDOo9ll5","standard","2","32","LP","0.264713485566566","141.467","141.739","142.27","0.803","0.531","3","246",NA
"106","R_12KibgPrDOo9ll5","standard","2","33","LP","0.264713485566566","143.274","143.547","143.966","0.692","0.419","3","249",NA
"107","R_12KibgPrDOo9ll5","standard","2","34","LP","30","144.971","NaN","147.023","2.052","NaN","0","249",NA
"108","R_12KibgPrDOo9ll5","standard","2","35","LP","19.8235243429556","148.027","NaN","150.822","2.795","NaN","0","249",NA
"109","R_12KibgPrDOo9ll5","standard","2","36","LP","2.15079707022835","151.827","153.98","154.438","2.611","0.458","3","252",NA
"110","R_12KibgPrDOo9ll5","standard","2","37","LP","3.49090909090909","155.443","NaN","158.431","2.988","NaN","0","252",NA
"111","R_12KibgPrDOo9ll5","standard","2","38","LP","30","159.435","NaN","161.654","2.219","NaN","0","252",NA
"112","R_12KibgPrDOo9ll5","standard","2","39","LP","0.661783713916415","162.659","163.323","163.742","1.083","0.419","3","255",NA
"113","R_12KibgPrDOo9ll5","standard","2","40","LP","19.8235243429556","164.749","NaN","166.942","2.193","NaN","0","255",NA
"114","R_12KibgPrDOo9ll5","standard","2","41","LP","0.661783713916415","167.947","NaN","168.35","0.403","NaN","0","255",NA
"115","R_12KibgPrDOo9ll5","standard","2","42","LP","0.264713485566566","169.354","169.619","170.031","0.677","0.412","3","258",NA
"116","R_12KibgPrDOo9ll5","standard","2","43","LP","5.5010771219302","171.034","NaN","173.558","2.524","NaN","0","258",NA
"117","R_12KibgPrDOo9ll5","standard","2","44","LP","30","174.563","NaN","174.902","0.339","NaN","0","258",NA
"118","R_12KibgPrDOo9ll5","standard","2","45","LP","5.5010771219302","175.907","NaN","178.862","2.955","NaN","0","258",NA
"119","R_12KibgPrDOo9ll5","standard","2","46","LP","19.8235243429556","179.868","NaN","183.759","3.891","NaN","0","258",NA
"120","R_12KibgPrDOo9ll5","standard","2","47","LP","13.0392072382594","184.763","NaN","186.878","2.115","NaN","0","258",NA
"121","R_12KibgPrDOo9ll5","standard","2","48","LP","13.0392072382594","187.883","NaN","190.318","2.435","NaN","0","258",NA
"122","R_12KibgPrDOo9ll5","standard","2","49","LP","5.5010771219302","191.325","NaN","194.39","3.065","NaN","0","258",NA
"123","R_12KibgPrDOo9ll5","standard","2","50","LP","5.5010771219302","195.395","NaN","198.926","3.531","NaN","0","258",NA
"124","R_12KibgPrDOo9ll5","standard","2","51","LP","30","199.931","NaN","202.798","2.867","NaN","0","258",NA
"125","R_12KibgPrDOo9ll5","standard","2","52","LP","13.0392072382594","203.803","NaN","207.463","3.66","NaN","0","258",NA
"126","R_12KibgPrDOo9ll5","standard","2","53","LP","5.5010771219302","208.467","NaN","212.03","3.563","NaN","0","258",NA
"127","R_12KibgPrDOo9ll5","standard","2","54","LP","19.8235243429556","213.034","NaN","217.214","4.18","NaN","0","258",NA
"128","R_12KibgPrDOo9ll5","standard","2","55","LP","0.661783713916415","218.216","218.883","219.398","1.182","0.515","3","261",NA
"129","R_12KibgPrDOo9ll5","standard","2","56","LP","2.15079707022835","220.404","222.563","222.982","2.578","0.419","3","264",NA
"130","R_12KibgPrDOo9ll5","standard","2","57","LP","0.661783713916415","223.987","224.651","225.102","1.115","0.451","3","267",NA
"131","R_12KibgPrDOo9ll5","standard","2","58","LP","0.661783713916415","226.107","226.771","227.278","1.171","0.507","3","270",NA
"132","R_12KibgPrDOo9ll5","standard","2","59","LP","13.0392072382594","228.282","NaN","230.294","2.012","NaN","0","270",NA
"133","R_12KibgPrDOo9ll5","standard","2","60","LP","0.264713485566566","231.305","231.571","232.07","0.765","0.499","3","273",NA
"134","R_12KibgPrDOo9ll5","standard","2","61","LP","1.25738905644119","233.075","234.34","234.758","1.683","0.418","3","276",NA
"135","R_12KibgPrDOo9ll5","standard","2","62","LP","5.5010771219302","235.763","NaN","238.934","3.171","NaN","0","276",NA
"136","R_12KibgPrDOo9ll5","standard","2","63","LP","19.8235243429556","239.939","NaN","244.153","4.214","NaN","0","276",NA
"137","R_12KibgPrDOo9ll5","standard","2","64","LP","5.5010771219302","245.162","NaN","249.334","4.172","NaN","0","276",NA
"138","R_12KibgPrDOo9ll5","standard","2","65","LP","8.51632916846187","250.339","NaN","254.118","3.779","NaN","0","276",NA
"139","R_12KibgPrDOo9ll5","standard","2","66","LP","8.51632916846187","255.122","NaN","258.687","3.565","NaN","0","276",NA
"140","R_12KibgPrDOo9ll5","standard","2","67","LP","5.5010771219302","259.692","NaN","263.614","3.922","NaN","0","276",NA
"141","R_12KibgPrDOo9ll5","standard","2","68","LP","19.8235243429556","264.619","NaN","268.526","3.907","NaN","0","276",NA
"142","R_12KibgPrDOo9ll5","standard","2","69","LP","5.5010771219302","269.531","NaN","273.494","3.963","NaN","0","276",NA
"143","R_12KibgPrDOo9ll5","standard","2","70","LP","3.49090909090909","274.499","277.996","278.43","3.931","0.434","3","279",NA
"144","R_12KibgPrDOo9ll5","standard","2","71","LP","2.15079707022835","279.435","281.586","282.038","2.603","0.452","3","282",NA
"145","R_12KibgPrDOo9ll5","standard","2","72","LP","19.8235243429556","283.043","NaN","288.191","5.148","NaN","0","282",NA
"146","R_12KibgPrDOo9ll5","standard","2","73","LP","0.661783713916415","289.196","289.859","290.35","1.154","0.491","3","285",NA
"147","R_12KibgPrDOo9ll5","standard","2","74","LP","1.25738905644119","291.365","292.627","293.006","1.641","0.379","3","288",NA
"148","R_12KibgPrDOo9ll5","standard","2","75","LP","19.8235243429556","294.009","NaN","297.574","3.565","NaN","0","288",NA
"149","R_12KibgPrDOo9ll5","standard","2","76","LP","3.49090909090909","298.581","302.081","302.151","3.57","0.07","3","291",NA
"150","R_12KibgPrDOo9ll5","standard","2","77","LP","1.25738905644119","303.155","304.419","304.838","1.683","0.419","3","294",NA
"151","R_12KibgPrDOo9ll5","standard","2","78","LP","5.5010771219302","305.843","NaN","308.926","3.083","NaN","0","294",NA
"152","R_12KibgPrDOo9ll5","standard","2","79","LP","3.49090909090909","309.93","313.428","313.798","3.868","0.37","3","297",NA
"153","R_12KibgPrDOo9ll5","standard","2","80","LP","0.661783713916415","314.803","315.467","315.878","1.075","0.411","3","300",NA
"154","R_12KibgPrDOo9ll5","standard","2","81","LP","19.8235243429556","316.883","NaN","319.062","2.179","NaN","0","300",NA
"155","R_12KibgPrDOo9ll5","standard","2","82","LP","1.25738905644119","320.068","321.331","321.614","1.546","0.283","3","303",NA
"156","R_12KibgPrDOo9ll5","standard","2","83","LP","1.25738905644119","322.619","323.883","324.287","1.668","0.404","3","306",NA
"157","R_12KibgPrDOo9ll5","standard","2","84","LP","30","325.291","NaN","327.926","2.635","NaN","0","306",NA
"158","R_12KibgPrDOo9ll5","standard","2","85","LP","0.264713485566566","328.93","329.217","329.662","0.732","0.445","3","309",NA
"159","R_12KibgPrDOo9ll5","standard","2","86","LP","8.51632916846187","330.668","NaN","334.014","3.346","NaN","0","309",NA
"160","R_12KibgPrDOo9ll5","standard","2","87","LP","19.8235243429556","335.019","NaN","338.63","3.611","NaN","0","309",NA
"161","R_12KibgPrDOo9ll5","standard","2","88","LP","3.49090909090909","339.634","NaN","342.83","3.196","NaN","0","309",NA
"162","R_12KibgPrDOo9ll5","standard","2","89","LP","0.661783713916415","343.834","344.498","345.03","1.196","0.532","3","312",NA
"163","R_12KibgPrDOo9ll5","standard","2","90","LP","2.15079707022835","346.035","348.186","348.606","2.571","0.42","3","315",NA
"164","R_12KibgPrDOo9ll5","standard","2","91","LP","3.49090909090909","349.608","353.108","353.239","3.631","0.131","3","318",NA
"165","R_12KibgPrDOo9ll5","standard","2","92","LP","19.8235243429556","354.243","NaN","357.966","3.723","NaN","0","318",NA
"166","R_12KibgPrDOo9ll5","standard","2","93","LP","30","358.971","NaN","362.15","3.179","NaN","0","318",NA
"167","R_12KibgPrDOo9ll5","standard","2","94","LP","5.5010771219302","363.155","NaN","366.382","3.227","NaN","0","318",NA
"168","R_12KibgPrDOo9ll5","standard","2","95","LP","5.5010771219302","367.386","NaN","370.758","3.372","NaN","0","318",NA
"169","R_12KibgPrDOo9ll5","standard","2","96","LP","8.51632916846187","371.762","NaN","375.422","3.66","NaN","0","318",NA
"170","R_12KibgPrDOo9ll5","standard","2","97","LP","19.8235243429556","376.427","NaN","380.446","4.019","NaN","0","318",NA
"171","R_12KibgPrDOo9ll5","standard","2","98","LP","13.0392072382594","381.457","NaN","385.678","4.221","NaN","0","318",NA
"172","R_12KibgPrDOo9ll5","standard","2","99","LP","1.25738905644119","386.683","387.947","388.406","1.723","0.459","3","321",NA
"173","R_12KibgPrDOo9ll5","standard","2","100","LP","2.15079707022835","389.408","391.563","391.935","2.527","0.372","3","324",NA
"174","R_12KibgPrDOo9ll5","standard","2","101","LP","2.15079707022835","392.939","395.091","395.55","2.611","0.459","3","327",NA
"175","R_12KibgPrDOo9ll5","standard","2","102","LP","8.51632916846187","396.555","NaN","400.462","3.907","NaN","0","327",NA
"176","R_12KibgPrDOo9ll5","standard","2","103","LP","2.15079707022835","401.467","403.62","404.039","2.572","0.419","3","330",NA
"177","R_12KibgPrDOo9ll5","standard","2","104","LP","2.15079707022835","405.043","407.195","407.579","2.536","0.384","3","333",NA
"178","R_12KibgPrDOo9ll5","standard","2","105","LP","0.661783713916415","408.586","409.252","409.638","1.052","0.386","3","336",NA
"179","R_12KibgPrDOo9ll5","standard","2","106","LP","8.51632916846187","410.657","NaN","414.567","3.91","NaN","0","336",NA
"180","R_12KibgPrDOo9ll5","standard","2","107","LP","19.8235243429556","415.571","NaN","419.182","3.611","NaN","0","336",NA
"181","R_12KibgPrDOo9ll5","standard","2","108","LP","1.25738905644119","420.186","421.45","421.91","1.724","0.46","3","339",NA
"182","R_12KibgPrDOo9ll5","standard","2","109","LP","0.661783713916415","422.913","423.579","424.03","1.117","0.451","3","342",NA
"183","R_12KibgPrDOo9ll5","standard","2","110","LP","19.8235243429556","425.035","NaN","429.479","4.444","NaN","0","342",NA
"184","R_12KibgPrDOo9ll5","standard","2","111","LP","8.51632916846187","430.483","NaN","434.902","4.419","NaN","0","342",NA
"185","R_12KibgPrDOo9ll5","standard","2","112","LP","3.49090909090909","435.911","439.417","439.863","3.952","0.446","3","345",NA
"186","R_12KibgPrDOo9ll5","standard","2","113","LP","8.51632916846187","440.867","NaN","445.318","4.451","NaN","0","345",NA
"187","R_12KibgPrDOo9ll5","standard","2","114","LP","0.661783713916415","446.323","446.988","447.526","1.203","0.538","3","348",NA
"188","R_12KibgPrDOo9ll5","standard","2","115","LP","2.15079707022835","448.53","450.684","451.174","2.644","0.49","3","351",NA
"189","R_12KibgPrDOo9ll5","standard","2","116","LP","2.15079707022835","452.178","454.33","454.757","2.579","0.427","3","354",NA
"190","R_12KibgPrDOo9ll5","standard","2","117","LP","1.25738905644119","455.763","457.026","457.445","1.682","0.419","3","357",NA
"191","R_12KibgPrDOo9ll5","standard","2","118","LP","0.264713485566566","458.451","458.716","459.301","0.85","0.585","3","360",NA
"192","R_12KibgPrDOo9ll5","standard","2","119","LP","2.15079707022835","460.306","462.458","462.838","2.532","0.38","3","363",NA
"193","R_12KibgPrDOo9ll5","standard","2","120","LP","8.51632916846187","463.842","NaN","468.349","4.507","NaN","0","363",NA
"194","R_12KibgPrDOo9ll5","standard","2","121","LP","0.264713485566566","469.354","469.627","470.101","0.747","0.474","3","366",NA
"195","R_12KibgPrDOo9ll5","standard","2","122","LP","3.49090909090909","471.106","NaN","473.846","2.74","NaN","0","366",NA
"196","R_12KibgPrDOo9ll5","standard","2","123","LP","8.51632916846187","474.851","NaN","478.237","3.386","NaN","0","366",NA
"197","R_12KibgPrDOo9ll5","standard","2","124","LP","19.8235243429556","479.241","NaN","483.733","4.492","NaN","0","366",NA
"198","R_12KibgPrDOo9ll5","standard","2","125","LP","19.8235243429556","484.738","NaN","488.846","4.108","NaN","0","366",NA
"199","R_12KibgPrDOo9ll5","standard","2","126","LP","3.49090909090909","489.85","493.348","493.773","3.923","0.425","3","369",NA
"200","R_12KibgPrDOo9ll5","standard","2","127","LP","1.25738905644119","494.778","496.042","496.445","1.667","0.403","3","372",NA
"201","R_12KibgPrDOo9ll5","standard","2","128","LP","0.264713485566566","497.45","497.715","498.309","0.859","0.594","3","375",NA
"202","R_12KibgPrDOo9ll5","standard","2","129","LP","19.8235243429556","499.311","NaN","503.478","4.167","NaN","0","375",NA
"203","R_12KibgPrDOo9ll5","standard","2","130","LP","2.15079707022835","504.483","506.642","507.133","2.65","0.491","3","378",NA
"204","R_12KibgPrDOo9ll5","standard","2","131","LP","0.661783713916415","508.139","508.803","509.278","1.139","0.475","3","381",NA
"205","R_12KibgPrDOo9ll5","standard","2","132","LP","0.264713485566566","510.283","510.555","511.15","0.867","0.595","3","384",NA
"206","R_12KibgPrDOo9ll5","standard","2","133","LP","1.25738905644119","512.155","513.42","513.847","1.692","0.427","3","387",NA
"207","R_12KibgPrDOo9ll5","standard","2","134","LP","19.8235243429556","514.852","NaN","517.638","2.786","NaN","0","387",NA
"208","R_12KibgPrDOo9ll5","standard","2","135","LP","13.0392072382594","518.644","NaN","522.15","3.506","NaN","0","387",NA
"209","R_12KibgPrDOo9ll5","standard","2","136","LP","2.15079707022835","523.154","525.31","525.735","2.581","0.425","3","390",NA
"210","R_12KibgPrDOo9ll5","standard","2","137","LP","0.661783713916415","526.739","527.412","527.894","1.155","0.482","3","393",NA
"211","R_12KibgPrDOo9ll5","standard","2","138","LP","5.5010771219302","528.939","NaN","532.686","3.747","NaN","0","393",NA
"212","R_12KibgPrDOo9ll5","standard","2","139","LP","2.15079707022835","533.692","535.851","536.271","2.579","0.42","3","396",NA
"213","R_12KibgPrDOo9ll5","standard","2","140","LP","8.51632916846187","537.275","NaN","540.71","3.435","NaN","0","396",NA
"214","R_12KibgPrDOo9ll5","standard","2","141","LP","3.49090909090909","541.713","545.208","545.679","3.966","0.471","3","399",NA
"215","R_12KibgPrDOo9ll5","standard","2","142","LP","2.15079707022835","546.684","548.843","549.247","2.563","0.404","3","402",NA
"216","R_12KibgPrDOo9ll5","standard","2","143","LP","30","550.251","NaN","553.91","3.659","NaN","0","402",NA
"217","R_12KibgPrDOo9ll5","standard","2","144","LP","3.49090909090909","554.913","558.404","558.87","3.957","0.466","3","405",NA
"218","R_12KibgPrDOo9ll5","standard","2","145","LP","8.51632916846187","559.875","NaN","563.375","3.5","NaN","0","405",NA
"219","R_12KibgPrDOo9ll5","standard","2","146","LP","1.25738905644119","564.38","565.644","566.094","1.714","0.45","3","408",NA
"220","R_12KibgPrDOo9ll5","standard","2","147","LP","19.8235243429556","567.099","NaN","569.846","2.747","NaN","0","408",NA
"221","R_12KibgPrDOo9ll5","standard","2","148","LP","8.51632916846187","570.851","NaN","575.502","4.651","NaN","0","408",NA
"222","R_12KibgPrDOo9ll5","standard","2","149","LP","3.49090909090909","576.508","580.003","580.486","3.978","0.483","3","411",NA
"223","R_12KibgPrDOo9ll5","standard","2","150","LP","19.8235243429556","581.491","NaN","585.454","3.963","NaN","0","411",NA
"224","R_12KibgPrDOo9ll5","standard","2","151","LP","0.264713485566566","586.459","586.725","587.286","0.827","0.561","3","414",NA
"225","R_12KibgPrDOo9ll5","standard","2","152","LP","19.8235243429556","588.29","NaN","591.862","3.572","NaN","0","414",NA
"226","R_12KibgPrDOo9ll5","standard","2","153","LP","3.49090909090909","592.867","596.363","596.83","3.963","0.467","3","417",NA
"227","R_12KibgPrDOo9ll5","standard","2","154","LP","0.661783713916415","597.834","598.499","599.022","1.188","0.523","3","420",NA
