"","subject_id","condition","n_block","n_trialIdx","f_timing_condition","n_scheduled_delay","n_trial_start_time","n_rewarded_time_fin","n_sell_time_fin","n_time_waited_fin","RT_fin","n_trial_earnings_fin","n_total_earnings_fin","keypress_times"
"1","R_1diem2X0dC1zhkj","standard","1","1","LP","5.5010771219302","0.001","5.507","5.803","5.802","0.296","3","3",""
"2","R_1diem2X0dC1zhkj","standard","1","2","LP","3.49090909090909","6.811","10.307","10.674","3.863","0.367","3","6",""
"3","R_1diem2X0dC1zhkj","standard","1","3","LP","2.15079707022835","11.683","13.842","14.451","2.768","0.609","3","6","439"
"4","R_1diem2X0dC1zhkj","standard","1","4","LP","0.264713485566566","15.458","15.727","16.211","0.753","0.484","3","9",""
"5","R_1diem2X0dC1zhkj","standard","1","5","LP","13.0392072382594","17.218","30.267","30.604","13.386","0.337","3","12",""
"6","R_1diem2X0dC1zhkj","standard","1","6","LP","0.661783713916415","31.611","32.282","32.642","1.031","0.36","3","15",""
"7","R_1diem2X0dC1zhkj","standard","1","7","LP","30","33.65","63.653","63.987","30.337","0.334","3","18",""
"8","R_1diem2X0dC1zhkj","standard","1","8","LP","8.51632916846187","64.994","73.515","73.915","8.921","0.4","3","21",""
"9","R_1diem2X0dC1zhkj","standard","1","9","LP","30","74.922","104.931","105.267","30.345","0.336","3","24",""
"10","R_1diem2X0dC1zhkj","standard","1","10","LP","19.8235243429556","106.274","126.097","126.499","20.225","0.402","3","27",""
"11","R_1diem2X0dC1zhkj","standard","1","11","LP","13.0392072382594","127.505","140.546","140.955","13.45","0.409","3","30",""
"12","R_1diem2X0dC1zhkj","standard","1","12","LP","1.25738905644119","141.986","143.25","143.923","1.937","0.673","3","33",""
"13","R_1diem2X0dC1zhkj","standard","1","13","LP","30","144.93","174.933","175.251","30.321","0.318","3","36",""
"14","R_1diem2X0dC1zhkj","standard","1","14","LP","8.51632916846187","176.258","184.779","185.139","8.881","0.36","3","39",""
"15","R_1diem2X0dC1zhkj","standard","1","15","LP","19.8235243429556","186.146","205.971","206.404","20.258","0.433","3","42",""
"16","R_1diem2X0dC1zhkj","standard","1","16","LP","1.25738905644119","207.414","208.675","209.347","1.933","0.672","3","45",""
"17","R_1diem2X0dC1zhkj","standard","1","17","LP","0.264713485566566","210.354","210.626","211.044","0.69","0.418","3","48",""
"18","R_1diem2X0dC1zhkj","standard","1","18","LP","30","212.051","242.058","242.524","30.473","0.466","3","51",""
"19","R_1diem2X0dC1zhkj","standard","1","19","LP","8.51632916846187","243.53","252.051","252.788","9.258","0.737","3","54",""
"20","R_1diem2X0dC1zhkj","standard","1","20","LP","2.15079707022835","253.795","255.946","256.403","2.608","0.457","3","57",""
"21","R_1diem2X0dC1zhkj","standard","1","21","LP","1.25738905644119","257.414","258.674","259.107","1.693","0.433","3","60",""
"22","R_1diem2X0dC1zhkj","standard","1","22","LP","5.5010771219302","260.115","265.637","266.076","5.961","0.439","3","63",""
"23","R_1diem2X0dC1zhkj","standard","1","23","LP","30","267.083","297.09","297.524","30.441","0.434","3","66",""
"24","R_1diem2X0dC1zhkj","standard","1","24","LP","3.49090909090909","298.531","302.026","302.412","3.881","0.386","3","69",""
"25","R_1diem2X0dC1zhkj","standard","1","25","LP","0.264713485566566","303.419","303.691","304.091","0.672","0.4","3","72",""
"26","R_1diem2X0dC1zhkj","standard","1","26","LP","0.661783713916415","305.098","305.762","306.308","1.21","0.546","3","75",""
"27","R_1diem2X0dC1zhkj","standard","1","27","LP","0.661783713916415","307.308","307.978","308.364","1.056","0.386","3","78",""
"28","R_1diem2X0dC1zhkj","standard","1","28","LP","0.264713485566566","309.37","309.637","310.083","0.713","0.446","3","81",""
"29","R_1diem2X0dC1zhkj","standard","1","29","LP","13.0392072382594","311.09","324.131","324.692","13.602","0.561","3","84",""
"30","R_1diem2X0dC1zhkj","standard","1","30","LP","5.5010771219302","325.698","331.203","331.646","5.948","0.443","3","87",""
"31","R_1diem2X0dC1zhkj","standard","1","31","LP","8.51632916846187","332.65","341.17","341.7","9.05","0.53","3","90",""
"32","R_1diem2X0dC1zhkj","standard","1","32","LP","19.8235243429556","342.707","362.538","363.012","20.305","0.474","3","93",""
"33","R_1diem2X0dC1zhkj","standard","1","33","LP","8.51632916846187","364.013","372.53","372.947","8.934","0.417","3","96",""
"34","R_1diem2X0dC1zhkj","standard","1","34","LP","19.8235243429556","373.954","393.786","394.236","20.282","0.45","3","99",""
"35","R_1diem2X0dC1zhkj","standard","1","35","LP","8.51632916846187","395.24","403.764","404.187","8.947","0.423","3","102",""
"36","R_1diem2X0dC1zhkj","standard","1","36","LP","0.661783713916415","405.195","405.858","406.236","1.041","0.378","3","105",""
"37","R_1diem2X0dC1zhkj","standard","1","37","LP","13.0392072382594","407.242","420.283","NA","14.086","NA","0","105",""
"38","R_1diem2X0dC1zhkj","standard","1","38","LP","1.25738905644119","422.331","423.594","424.131","1.8","0.537","3","108",""
"39","R_1diem2X0dC1zhkj","standard","1","39","LP","0.661783713916415","425.138","425.802","426.347","1.209","0.545","3","111",""
"40","R_1diem2X0dC1zhkj","standard","1","40","LP","30","427.356","457.362","457.752","30.396","0.39","3","114",""
"41","R_1diem2X0dC1zhkj","standard","1","41","LP","1.25738905644119","458.755","460.019","460.492","1.737","0.473","3","117",""
"42","R_1diem2X0dC1zhkj","standard","1","42","LP","5.5010771219302","461.503","467.009","467.46","5.957","0.451","3","120",""
"43","R_1diem2X0dC1zhkj","standard","1","43","LP","2.15079707022835","468.467","470.618","471.052","2.585","0.434","3","123",""
"44","R_1diem2X0dC1zhkj","standard","1","44","LP","3.49090909090909","472.06","475.554","476.3","4.24","0.746","3","126",""
"45","R_1diem2X0dC1zhkj","standard","1","45","LP","1.25738905644119","477.306","478.571","479.019","1.713","0.448","3","129",""
"46","R_1diem2X0dC1zhkj","standard","1","46","LP","5.5010771219302","480.027","485.53","485.964","5.937","0.434","3","132",""
"47","R_1diem2X0dC1zhkj","standard","1","47","LP","3.49090909090909","486.971","490.467","490.875","3.904","0.408","3","135",""
"48","R_1diem2X0dC1zhkj","standard","1","48","LP","0.661783713916415","491.882","492.547","493.157","1.275","0.61","3","138",""
"49","R_1diem2X0dC1zhkj","standard","1","49","LP","1.25738905644119","494.162","495.427","495.869","1.707","0.442","3","141",""
"50","R_1diem2X0dC1zhkj","standard","1","50","LP","19.8235243429556","496.874","516.698","517.237","20.363","0.539","3","144",""
"51","R_1diem2X0dC1zhkj","standard","1","51","LP","5.5010771219302","518.244","523.747","524.364","6.12","0.617","3","147",""
"52","R_1diem2X0dC1zhkj","standard","1","52","LP","8.51632916846187","525.37","533.89","534.34","8.97","0.45","3","150",""
"53","R_1diem2X0dC1zhkj","standard","1","53","LP","8.51632916846187","535.345","543.868","544.429","9.084","0.561","3","153",""
"54","R_1diem2X0dC1zhkj","standard","1","54","LP","30","545.433","575.442","575.765","30.332","0.323","3","156",""
"55","R_1diem2X0dC1zhkj","standard","1","55","LP","19.8235243429556","576.771","596.602","597.044","20.273","0.442","3","159",""
"56","R_1diem2X0dC1zhkj","standard","1","56","LP","19.8235243429556","598.046","617.874","618.22","20.174","0.346","3","162",""
"57","R_1diem2X0dC1zhkj","standard","1","57","LP","30","619.227","649.23","649.884","30.657","0.654","3","165",""
"58","R_1diem2X0dC1zhkj","standard","1","58","LP","3.49090909090909","650.893","654.386","655.02","4.127","0.634","3","168",""
"59","R_1diem2X0dC1zhkj","standard","1","59","LP","30","656.026","686.032","686.452","30.426","0.42","3","171",""
"60","R_1diem2X0dC1zhkj","standard","1","60","LP","3.49090909090909","687.458","690.955","691.452","3.994","0.497","3","174",""
"61","R_1diem2X0dC1zhkj","standard","1","61","LP","19.8235243429556","692.46","712.29","712.676","20.216","0.386","3","177",""
"62","R_1diem2X0dC1zhkj","standard","1","62","LP","13.0392072382594","713.682","726.73","727.213","13.531","0.483","3","180",""
"63","R_1diem2X0dC1zhkj","standard","1","63","LP","8.51632916846187","728.224","736.741","737.38","9.156","0.639","3","183",""
"64","R_1diem2X0dC1zhkj","standard","1","64","LP","5.5010771219302","738.386","743.891","NA","6.513","NA","0","183",""
"65","R_1diem2X0dC1zhkj","standard","1","65","LP","0.264713485566566","745.906","746.179","746.732","0.826","0.553","3","186",""
"66","R_1diem2X0dC1zhkj","standard","1","66","LP","13.0392072382594","747.735","760.777","761.252","13.517","0.475","3","189",""
"67","R_1diem2X0dC1zhkj","standard","1","67","LP","0.264713485566566","762.258","762.525","763.524","1.266","0.999","3","189","138"
"68","R_1diem2X0dC1zhkj","standard","1","68","LP","3.49090909090909","764.543","768.043","768.616","4.073","0.573","3","192",""
"69","R_1diem2X0dC1zhkj","standard","1","69","LP","0.264713485566566","769.62","769.89","770.396","0.776","0.506","3","195",""
"70","R_1diem2X0dC1zhkj","standard","1","70","LP","0.264713485566566","771.402","771.675","772.141","0.739","0.466","3","198",""
"71","R_1diem2X0dC1zhkj","standard","1","71","LP","19.8235243429556","773.147","792.979","793.533","20.386","0.554","3","201",""
"72","R_1diem2X0dC1zhkj","standard","1","72","LP","0.264713485566566","794.535","794.803","795.229","0.694","0.426","3","204",""
"73","R_1diem2X0dC1zhkj","standard","1","73","LP","13.0392072382594","796.234","809.275","810.205","13.971","0.93","3","207",""
"74","R_1diem2X0dC1zhkj","standard","1","74","LP","0.264713485566566","811.218","811.491","811.933","0.715","0.442","3","210",""
"75","R_1diem2X0dC1zhkj","standard","1","75","LP","0.264713485566566","812.943","813.21","813.615","0.672","0.405","3","213",""
"76","R_1diem2X0dC1zhkj","standard","1","76","LP","5.5010771219302","814.618","820.147","820.623","6.005","0.476","3","216",""
"77","R_1diem2X0dC1zhkj","standard","1","77","LP","0.264713485566566","821.628","821.907","822.332","0.704","0.425","3","219",""
"78","R_1diem2X0dC1zhkj","standard","1","78","LP","13.0392072382594","823.346","836.387","836.948","13.602","0.561","3","222",""
"79","R_1diem2X0dC1zhkj","standard","1","79","LP","3.49090909090909","837.954","841.451","842.14","4.186","0.689","3","225",""
"80","R_1diem2X0dC1zhkj","standard","1","80","LP","5.5010771219302","843.146","848.651","849.237","6.091","0.586","3","228",""
"81","R_1diem2X0dC1zhkj","standard","1","81","LP","2.15079707022835","850.242","852.395","852.86","2.618","0.465","3","231",""
"82","R_1diem2X0dC1zhkj","standard","1","82","LP","2.15079707022835","853.869","856.026","856.485","2.616","0.459","3","234",""
"83","R_1diem2X0dC1zhkj","standard","1","83","LP","2.15079707022835","857.502","859.655","860.109","2.607","0.454","3","237",""
"84","R_1diem2X0dC1zhkj","standard","1","84","LP","19.8235243429556","861.115","880.947","881.413","20.298","0.466","3","240",""
"85","R_1diem2X0dC1zhkj","standard","1","85","LP","3.49090909090909","882.419","885.914","886.444","4.025","0.53","3","243",""
"86","R_1diem2X0dC1zhkj","standard","2","1","LP","19.8235243429556","0","NaN","7.659","7.659","NaN","0","243",NA
"87","R_1diem2X0dC1zhkj","standard","2","2","LP","2.15079707022835","8.664","10.817","11.307","2.643","0.49","3","246",NA
"88","R_1diem2X0dC1zhkj","standard","2","3","LP","13.0392072382594","12.314","NaN","18.843","6.529","NaN","0","246",NA
"89","R_1diem2X0dC1zhkj","standard","2","4","LP","30","19.844","NaN","27.339","7.495","NaN","0","246",NA
"90","R_1diem2X0dC1zhkj","standard","2","5","LP","19.8235243429556","28.344","NaN","36.769","8.425","NaN","0","246",NA
"91","R_1diem2X0dC1zhkj","standard","2","6","LP","0.661783713916415","37.776","38.44","39.066","1.29","0.626","3","249",NA
"92","R_1diem2X0dC1zhkj","standard","2","7","LP","0.264713485566566","40.072","40.344","40.77","0.698","0.426","3","252",NA
"93","R_1diem2X0dC1zhkj","standard","2","8","LP","0.264713485566566","41.775","42.058","42.426","0.651","0.368","3","255",NA
"94","R_1diem2X0dC1zhkj","standard","2","9","LP","5.5010771219302","43.428","NaN","47.915","4.487","NaN","0","255",NA
"95","R_1diem2X0dC1zhkj","standard","2","10","LP","5.5010771219302","48.92","NaN","53.795","4.875","NaN","0","255",NA
"96","R_1diem2X0dC1zhkj","standard","2","11","LP","1.25738905644119","54.8","56.064","56.507","1.707","0.443","3","258",NA
"97","R_1diem2X0dC1zhkj","standard","2","12","LP","3.49090909090909","57.508","61.016","61.491","3.983","0.475","3","261",NA
"98","R_1diem2X0dC1zhkj","standard","2","13","LP","19.8235243429556","62.497","NaN","69.348","6.851","NaN","0","261",NA
"99","R_1diem2X0dC1zhkj","standard","2","14","LP","3.49090909090909","70.353","73.849","74.324","3.971","0.475","3","264",NA
"100","R_1diem2X0dC1zhkj","standard","2","15","LP","19.8235243429556","75.328","NaN","84.835","9.507","NaN","0","264",NA
"101","R_1diem2X0dC1zhkj","standard","2","16","LP","30","85.84","NaN","93.259","7.419","NaN","0","264",NA
"102","R_1diem2X0dC1zhkj","standard","2","17","LP","2.15079707022835","94.268","96.429","96.965","2.697","0.536","3","267",NA
"103","R_1diem2X0dC1zhkj","standard","2","18","LP","8.51632916846187","97.968","106.52","107.003","9.035","0.483","3","270",NA
"104","R_1diem2X0dC1zhkj","standard","2","19","LP","0.661783713916415","108.044","108.718","109.211","1.167","0.493","3","273",NA
"105","R_1diem2X0dC1zhkj","standard","2","20","LP","8.51632916846187","110.212","NaN","117.725","7.513","NaN","0","273",NA
"106","R_1diem2X0dC1zhkj","standard","2","21","LP","0.264713485566566","118.729","119","119.485","0.756","0.485","3","276",NA
"107","R_1diem2X0dC1zhkj","standard","2","22","LP","13.0392072382594","120.489","NaN","132.148","11.659","NaN","0","276",NA
"108","R_1diem2X0dC1zhkj","standard","2","23","LP","8.51632916846187","133.152","141.673","142.158","9.006","0.485","3","279",NA
"109","R_1diem2X0dC1zhkj","standard","2","24","LP","0.661783713916415","143.16","143.825","144.3","1.14","0.475","3","282",NA
"110","R_1diem2X0dC1zhkj","standard","2","25","LP","30","145.308","NaN","153.86","8.552","NaN","0","282",NA
"111","R_1diem2X0dC1zhkj","standard","2","26","LP","5.5010771219302","154.876","160.384","160.947","6.071","0.563","3","285",NA
"112","R_1diem2X0dC1zhkj","standard","2","27","LP","19.8235243429556","161.948","NaN","170.869","8.921","NaN","0","285",NA
"113","R_1diem2X0dC1zhkj","standard","2","28","LP","13.0392072382594","171.873","NaN","184.059","12.186","NaN","0","285",NA
"114","R_1diem2X0dC1zhkj","standard","2","29","LP","1.25738905644119","185.064","186.329","186.942","1.878","0.613","3","288",NA
"115","R_1diem2X0dC1zhkj","standard","2","30","LP","1.25738905644119","187.945","189.208","189.63","1.685","0.422","3","291",NA
"116","R_1diem2X0dC1zhkj","standard","2","31","LP","5.5010771219302","190.632","196.137","196.628","5.996","0.491","3","294",NA
"117","R_1diem2X0dC1zhkj","standard","2","32","LP","5.5010771219302","197.633","203.138","203.747","6.114","0.609","3","297",NA
"118","R_1diem2X0dC1zhkj","standard","2","33","LP","30","204.752","NaN","212.331","7.579","NaN","0","297",NA
"119","R_1diem2X0dC1zhkj","standard","2","34","LP","13.0392072382594","213.333","NaN","219.606","6.273","NaN","0","297",NA
"120","R_1diem2X0dC1zhkj","standard","2","35","LP","19.8235243429556","220.608","NaN","229.244","8.636","NaN","0","297",NA
"121","R_1diem2X0dC1zhkj","standard","2","36","LP","13.0392072382594","230.249","NaN","241.5","11.251","NaN","0","297",NA
"122","R_1diem2X0dC1zhkj","standard","2","37","LP","2.15079707022835","242.51","244.664","245.333","2.823","0.669","3","300",NA
"123","R_1diem2X0dC1zhkj","standard","2","38","LP","3.49090909090909","246.336","249.833","250.339","4.003","0.506","3","303",NA
"124","R_1diem2X0dC1zhkj","standard","2","39","LP","30","251.345","NaN","258.036","6.691","NaN","0","303",NA
"125","R_1diem2X0dC1zhkj","standard","2","40","LP","13.0392072382594","259.04","NaN","269.428","10.388","NaN","0","303",NA
"126","R_1diem2X0dC1zhkj","standard","2","41","LP","1.25738905644119","270.434","271.697","272.484","2.05","0.787","3","306",NA
"127","R_1diem2X0dC1zhkj","standard","2","42","LP","1.25738905644119","273.488","274.753","275.283","1.795","0.53","3","309",NA
"128","R_1diem2X0dC1zhkj","standard","2","43","LP","5.5010771219302","276.289","281.792","282.438","6.149","0.646","3","312",NA
"129","R_1diem2X0dC1zhkj","standard","2","44","LP","19.8235243429556","283.44","NaN","294.437","10.997","NaN","0","312",NA
"130","R_1diem2X0dC1zhkj","standard","2","45","LP","3.49090909090909","295.443","298.935","299.459","4.016","0.524","3","315",NA
"131","R_1diem2X0dC1zhkj","standard","2","46","LP","8.51632916846187","300.465","308.985","309.1","8.635","0.115","3","318",NA
"132","R_1diem2X0dC1zhkj","standard","2","47","LP","19.8235243429556","310.151","NaN","313.878","3.727","NaN","0","318",NA
"133","R_1diem2X0dC1zhkj","standard","2","48","LP","3.49090909090909","314.88","318.379","318.827","3.947","0.448","3","321",NA
"134","R_1diem2X0dC1zhkj","standard","2","49","LP","2.15079707022835","319.832","321.984","322.445","2.613","0.461","3","324",NA
"135","R_1diem2X0dC1zhkj","standard","2","50","LP","30","323.448","NaN","329.948","6.5","NaN","0","324",NA
"136","R_1diem2X0dC1zhkj","standard","2","51","LP","8.51632916846187","330.953","NaN","336.716","5.763","NaN","0","324",NA
"137","R_1diem2X0dC1zhkj","standard","2","52","LP","30","337.721","NaN","343.557","5.836","NaN","0","324",NA
"138","R_1diem2X0dC1zhkj","standard","2","53","LP","13.0392072382594","344.561","NaN","352.252","7.691","NaN","0","324",NA
"139","R_1diem2X0dC1zhkj","standard","2","54","LP","1.25738905644119","353.254","354.521","355.149","1.895","0.628","3","327",NA
"140","R_1diem2X0dC1zhkj","standard","2","55","LP","13.0392072382594","356.153","NaN","365.22","9.067","NaN","0","327",NA
"141","R_1diem2X0dC1zhkj","standard","2","56","LP","0.661783713916415","366.225","366.888","367.573","1.348","0.685","3","330",NA
"142","R_1diem2X0dC1zhkj","standard","2","57","LP","0.264713485566566","368.576","368.849","369.668","1.092","0.819","3","333",NA
"143","R_1diem2X0dC1zhkj","standard","2","58","LP","13.0392072382594","370.675","383.721","384.204","13.529","0.483","3","336",NA
"144","R_1diem2X0dC1zhkj","standard","2","59","LP","1.25738905644119","385.211","386.473","386.934","1.723","0.461","3","339",NA
"145","R_1diem2X0dC1zhkj","standard","2","60","LP","2.15079707022835","387.936","390.088","390.587","2.651","0.499","3","342",NA
"146","R_1diem2X0dC1zhkj","standard","2","61","LP","19.8235243429556","391.62","NaN","398.468","6.848","NaN","0","342",NA
"147","R_1diem2X0dC1zhkj","standard","2","62","LP","3.49090909090909","399.474","402.968","403.42","3.946","0.452","3","345",NA
"148","R_1diem2X0dC1zhkj","standard","2","63","LP","3.49090909090909","404.429","407.92","408.692","4.263","0.772","3","348",NA
"149","R_1diem2X0dC1zhkj","standard","2","64","LP","8.51632916846187","409.704","418.225","418.748","9.044","0.523","3","351",NA
"150","R_1diem2X0dC1zhkj","standard","2","65","LP","5.5010771219302","419.753","425.256","425.748","5.995","0.492","3","354",NA
"151","R_1diem2X0dC1zhkj","standard","2","66","LP","8.51632916846187","426.749","435.313","435.836","9.087","0.523","3","357",NA
"152","R_1diem2X0dC1zhkj","standard","2","67","LP","13.0392072382594","436.84","NaN","446.941","10.101","NaN","0","357",NA
"153","R_1diem2X0dC1zhkj","standard","2","68","LP","8.51632916846187","447.944","456.464",NA,"9.529",NA,"0","357",NA
"154","R_1diem2X0dC1zhkj","standard","2","69","LP","5.5010771219302","458.475","463.984","464.436","5.961","0.452","3","360",NA
"155","R_1diem2X0dC1zhkj","standard","2","70","LP","19.8235243429556","465.44","NaN","480.903","15.463","NaN","0","360",NA
"156","R_1diem2X0dC1zhkj","standard","2","71","LP","3.49090909090909","481.905","485.436","486.028","4.123","0.592","3","363",NA
"157","R_1diem2X0dC1zhkj","standard","2","72","LP","30","487.029","NaN","500.035","13.006","NaN","0","363",NA
"158","R_1diem2X0dC1zhkj","standard","2","73","LP","5.5010771219302","501.053","506.56","507.019","5.966","0.459","3","366",NA
"159","R_1diem2X0dC1zhkj","standard","2","74","LP","1.25738905644119","508.024","509.288","509.739","1.715","0.451","3","369",NA
"160","R_1diem2X0dC1zhkj","standard","2","75","LP","8.51632916846187","510.744","NaN","517.436","6.692","NaN","0","369",NA
"161","R_1diem2X0dC1zhkj","standard","2","76","LP","8.51632916846187","518.441","526.961","527.437","8.996","0.476","3","372",NA
"162","R_1diem2X0dC1zhkj","standard","2","77","LP","0.264713485566566","528.443","528.719","529.155","0.712","0.436","3","375",NA
"163","R_1diem2X0dC1zhkj","standard","2","78","LP","0.661783713916415","530.161","530.824","531.299","1.138","0.475","3","378",NA
"164","R_1diem2X0dC1zhkj","standard","2","79","LP","8.51632916846187","532.319","NaN","536.108","3.789","NaN","0","378",NA
"165","R_1diem2X0dC1zhkj","standard","2","80","LP","2.15079707022835","537.112","539.263","539.74","2.628","0.477","3","381",NA
"166","R_1diem2X0dC1zhkj","standard","2","81","LP","2.15079707022835","540.744","542.895","543.334","2.59","0.439","3","384",NA
"167","R_1diem2X0dC1zhkj","standard","2","82","LP","19.8235243429556","544.344","NaN","549.367","5.023","NaN","0","384",NA
"168","R_1diem2X0dC1zhkj","standard","2","83","LP","5.5010771219302","550.377","NaN","554.98","4.603","NaN","0","384",NA
"169","R_1diem2X0dC1zhkj","standard","2","84","LP","19.8235243429556","555.985","NaN","561.748","5.763","NaN","0","384",NA
"170","R_1diem2X0dC1zhkj","standard","2","85","LP","3.49090909090909","562.753","566.244","566.756","4.003","0.512","3","387",NA
"171","R_1diem2X0dC1zhkj","standard","2","86","LP","19.8235243429556","567.76","NaN","573.892","6.132","NaN","0","387",NA
"172","R_1diem2X0dC1zhkj","standard","2","87","LP","1.25738905644119","574.898","576.16","576.599","1.701","0.439","3","390",NA
"173","R_1diem2X0dC1zhkj","standard","2","88","LP","13.0392072382594","577.607","NaN","582.292","4.685","NaN","0","390",NA
"174","R_1diem2X0dC1zhkj","standard","2","89","LP","30","583.341","NaN","586.668","3.327","NaN","0","390",NA
"175","R_1diem2X0dC1zhkj","standard","2","90","LP","8.51632916846187","587.672","NaN","590.988","3.316","NaN","0","390",NA
"176","R_1diem2X0dC1zhkj","standard","2","91","LP","3.49090909090909","591.993","NaN","595.26","3.267","NaN","0","390",NA
