"","subject_id","condition","n_block","n_trialIdx","f_timing_condition","n_scheduled_delay","n_trial_start_time","n_rewarded_time_fin","n_sell_time_fin","n_time_waited_fin","RT_fin","n_trial_earnings_fin","n_total_earnings_fin","keypress_times"
"1","R_1dhlyHMvZcxNoJ4","standard","1","1","HP","4","0.005","4.009","4.597","4.592","0.588","3","3",""
"2","R_1dhlyHMvZcxNoJ4","standard","1","2","HP","14","5.598","19.605","20.18","14.582","0.575","3","6",""
"3","R_1dhlyHMvZcxNoJ4","standard","1","3","HP","8","21.181","29.181","29.979","8.798","0.798","3","9",""
"4","R_1dhlyHMvZcxNoJ4","standard","1","4","HP","18","30.981","48.99","49.611","18.63","0.621","3","12",""
"5","R_1dhlyHMvZcxNoJ4","standard","1","5","HP","6","50.617","56.622","57.274","6.657","0.652","3","15",""
"6","R_1dhlyHMvZcxNoJ4","standard","1","6","HP","14","58.276","72.281","72.84","14.564","0.559","3","18",""
"7","R_1dhlyHMvZcxNoJ4","standard","1","7","HP","10","73.841","83.847","84.486","10.645","0.639","3","21",""
"8","R_1dhlyHMvZcxNoJ4","standard","1","8","HP","12","85.487","97.496","98.171","12.684","0.675","3","24",""
"9","R_1dhlyHMvZcxNoJ4","standard","1","9","HP","14","99.175","113.183","113.789","14.614","0.606","3","27",""
"10","R_1dhlyHMvZcxNoJ4","standard","1","10","HP","16","114.808","130.809","131.451","16.643","0.642","3","30",""
"11","R_1dhlyHMvZcxNoJ4","standard","1","11","HP","6","132.455","138.462","139.13","6.675","0.668","3","33",""
"12","R_1dhlyHMvZcxNoJ4","standard","1","12","HP","20","140.134","160.141","160.749","20.615","0.608","3","36",""
"13","R_1dhlyHMvZcxNoJ4","standard","1","13","HP","18","161.759","179.765","180.382","18.623","0.617","3","39",""
"14","R_1dhlyHMvZcxNoJ4","standard","1","14","HP","14","181.393","195.397","196.081","14.688","0.684","3","42",""
"15","R_1dhlyHMvZcxNoJ4","standard","1","15","HP","20","197.086","217.094","217.698","20.612","0.604","3","45",""
"16","R_1dhlyHMvZcxNoJ4","standard","1","16","HP","16","218.765","234.766","235.448","16.683","0.682","3","48",""
"17","R_1dhlyHMvZcxNoJ4","standard","1","17","HP","18","236.454","254.46","255.192","18.738","0.732","3","51",""
"18","R_1dhlyHMvZcxNoJ4","standard","1","18","HP","8","256.201","264.206","265.061","8.86","0.855","3","54",""
"19","R_1dhlyHMvZcxNoJ4","standard","1","19","HP","16","266.061","282.063","282.618","16.557","0.555","3","57",""
"20","R_1dhlyHMvZcxNoJ4","standard","1","20","HP","8","283.621","291.63","292.268","8.647","0.638","3","60",""
"21","R_1dhlyHMvZcxNoJ4","standard","1","21","HP","12","293.269","305.271","305.907","12.638","0.636","3","63",""
"22","R_1dhlyHMvZcxNoJ4","standard","1","22","HP","4","306.919","310.921","311.657","4.738","0.736","3","66",""
"23","R_1dhlyHMvZcxNoJ4","standard","1","23","HP","20","312.662","332.671","333.267","20.605","0.596","3","66","4139"
"24","R_1dhlyHMvZcxNoJ4","standard","1","24","HP","8","334.27","342.292","343.101","8.831","0.809","3","69",""
"25","R_1dhlyHMvZcxNoJ4","standard","1","25","HP","6","344.106","350.115","350.815","6.709","0.7","3","72",""
"26","R_1dhlyHMvZcxNoJ4","standard","1","26","HP","4","351.816","355.823","356.485","4.669","0.662","3","75",""
"27","R_1dhlyHMvZcxNoJ4","standard","1","27","HP","10","357.486","367.495","368.151","10.665","0.656","3","78",""
"28","R_1dhlyHMvZcxNoJ4","standard","1","28","HP","12","369.161","381.167","381.872","12.711","0.705","3","81",""
"29","R_1dhlyHMvZcxNoJ4","standard","1","29","HP","10","382.878","392.887","393.512","10.634","0.625","3","84",""
"30","R_1dhlyHMvZcxNoJ4","standard","1","30","HP","4","394.527","398.532","399.318","4.791","0.786","3","87",""
"31","R_1dhlyHMvZcxNoJ4","standard","1","31","HP","20","400.328","420.334","420.94","20.612","0.606","3","90",""
"32","R_1dhlyHMvZcxNoJ4","standard","1","32","HP","14","421.943","435.951","436.651","14.708","0.7","3","93",""
"33","R_1dhlyHMvZcxNoJ4","standard","1","33","HP","6","437.654","443.663","444.447","6.793","0.784","3","96",""
"34","R_1dhlyHMvZcxNoJ4","standard","1","34","HP","8","445.457","453.463","454.204","8.747","0.741","3","99",""
"35","R_1dhlyHMvZcxNoJ4","standard","1","35","HP","12","455.215","467.22","467.929","12.714","0.709","3","102",""
"36","R_1dhlyHMvZcxNoJ4","standard","1","36","HP","12","468.937","480.943","481.672","12.735","0.729","3","105",""
"37","R_1dhlyHMvZcxNoJ4","standard","1","37","HP","10","482.679","492.698","493.32","10.641","0.622","3","108",""
"38","R_1dhlyHMvZcxNoJ4","standard","1","38","HP","20","494.344","514.344","515.08","20.736","0.736","3","111",""
"39","R_1dhlyHMvZcxNoJ4","standard","1","39","HP","8","516.091","524.094","524.847","8.756","0.753","3","114",""
"40","R_1dhlyHMvZcxNoJ4","standard","1","40","HP","20","525.854","545.861","546.472","20.618","0.611","3","117",""
"41","R_1dhlyHMvZcxNoJ4","standard","1","41","HP","20","547.477","567.478","568.17","20.693","0.692","3","120",""
"42","R_1dhlyHMvZcxNoJ4","standard","1","42","HP","2","569.175","571.183","572.158","2.983","0.975","3","123",""
"43","R_1dhlyHMvZcxNoJ4","standard","1","43","HP","8","573.166","581.167","581.792","8.626","0.625","3","126",""
"44","R_1dhlyHMvZcxNoJ4","standard","1","44","HP","16","582.8","598.81","599.551","16.751","0.741","3","129",""
"45","R_1dhlyHMvZcxNoJ4","standard","1","45","HP","20","600.559","620.566","621.241","20.682","0.675","3","132",""
"46","R_1dhlyHMvZcxNoJ4","standard","1","46","HP","6","622.247","628.255","628.99","6.743","0.735","3","135",""
"47","R_1dhlyHMvZcxNoJ4","standard","1","47","HP","18","629.99","647.99","648.62","18.63","0.63","3","138",""
"48","R_1dhlyHMvZcxNoJ4","standard","1","48","HP","8","649.631","657.631","658.25","8.619","0.619","3","141",""
"49","R_1dhlyHMvZcxNoJ4","standard","1","49","HP","12","659.255","671.262","671.895","12.64","0.633","3","144",""
"50","R_1dhlyHMvZcxNoJ4","standard","1","50","HP","18","672.903","690.919","691.575","18.672","0.656","3","147",""
"51","R_1dhlyHMvZcxNoJ4","standard","1","51","HP","12","692.583","704.59","705.208","12.625","0.618","3","150",""
"52","R_1dhlyHMvZcxNoJ4","standard","1","52","HP","18","706.211","724.214","724.828","18.617","0.614","3","153",""
"53","R_1dhlyHMvZcxNoJ4","standard","1","53","HP","18","725.831","743.837","744.483","18.652","0.646","3","156",""
"54","R_1dhlyHMvZcxNoJ4","standard","1","54","HP","12","745.487","757.495","NA","13.034","NA","0","156",""
"55","R_1dhlyHMvZcxNoJ4","standard","1","55","HP","6","759.527","765.539","766.259","6.732","0.72","3","153","c(""2157"", ""2485"")"
"56","R_1dhlyHMvZcxNoJ4","standard","1","56","HP","2","767.262","769.269","770.031","2.769","0.762","3","156",""
"57","R_1dhlyHMvZcxNoJ4","standard","1","57","HP","18","771.032","789.039","789.67","18.638","0.631","3","159",""
"58","R_1dhlyHMvZcxNoJ4","standard","1","58","HP","16","790.688","806.713","807.304","16.616","0.591","3","162",""
"59","R_1dhlyHMvZcxNoJ4","standard","1","59","HP","20","808.309","828.311","828.99","20.681","0.679","3","165",""
"60","R_1dhlyHMvZcxNoJ4","standard","1","60","HP","10","829.995","839.997","840.727","10.732","0.73","3","168",""
"61","R_1dhlyHMvZcxNoJ4","standard","1","61","HP","20","841.733","861.735","NA","21.01","NA","0","168",""
"62","R_1dhlyHMvZcxNoJ4","standard","1","62","HP","16","863.747","879.757","880.457","16.71","0.7","3","168","3143"
"63","R_1dhlyHMvZcxNoJ4","standard","1","63","HP","8","881.463","889.473","890.068","8.605","0.595","3","171",""
"64","R_1dhlyHMvZcxNoJ4","standard","1","64","HP","2","891.074","893.078","893.71","2.636","0.632","3","174",""
"65","R_1dhlyHMvZcxNoJ4","standard","2","1","LP","30","0","NaN","1.123","1.123","NaN","0","174",NA
"66","R_1dhlyHMvZcxNoJ4","standard","2","2","LP","0.661783713916415","2.124","2.788","3.438","1.314","0.65","3","177",NA
"67","R_1dhlyHMvZcxNoJ4","standard","2","3","LP","3.49090909090909","4.443","NaN","5.26","0.817","NaN","0","177",NA
"68","R_1dhlyHMvZcxNoJ4","standard","2","4","LP","13.0392072382594","6.267","NaN","7.162","0.895","NaN","0","177",NA
"69","R_1dhlyHMvZcxNoJ4","standard","2","5","LP","1.25738905644119","8.166","NaN","8.92","0.754","NaN","0","177",NA
"70","R_1dhlyHMvZcxNoJ4","standard","2","6","LP","19.8235243429556","9.929","NaN","10.791","0.862","NaN","0","177",NA
"71","R_1dhlyHMvZcxNoJ4","standard","2","7","LP","30","11.795","NaN","12.586","0.791","NaN","0","177",NA
"72","R_1dhlyHMvZcxNoJ4","standard","2","8","LP","3.49090909090909","13.595","NaN","15.163","1.568","NaN","0","177",NA
"73","R_1dhlyHMvZcxNoJ4","standard","2","9","LP","19.8235243429556","16.164","NaN","16.721","0.557","NaN","0","177",NA
"74","R_1dhlyHMvZcxNoJ4","standard","2","10","LP","8.51632916846187","17.728","NaN","18.461","0.733","NaN","0","177",NA
"75","R_1dhlyHMvZcxNoJ4","standard","2","11","LP","5.5010771219302","19.467","NaN","23.534","4.067","NaN","0","177",NA
"76","R_1dhlyHMvZcxNoJ4","standard","2","12","LP","0.661783713916415","24.536","25.207","25.618","1.082","0.411","3","180",NA
"77","R_1dhlyHMvZcxNoJ4","standard","2","13","LP","2.15079707022835","26.625","NaN","28.157","1.532","NaN","0","180",NA
"78","R_1dhlyHMvZcxNoJ4","standard","2","14","LP","0.264713485566566","29.164","29.434","30.138","0.974","0.704","3","183",NA
"79","R_1dhlyHMvZcxNoJ4","standard","2","15","LP","0.661783713916415","31.14","31.804","32.449","1.309","0.645","3","186",NA
"80","R_1dhlyHMvZcxNoJ4","standard","2","16","LP","8.51632916846187","33.452","NaN","34.688","1.236","NaN","0","186",NA
"81","R_1dhlyHMvZcxNoJ4","standard","2","17","LP","13.0392072382594","35.691","NaN","36.829","1.138","NaN","0","186",NA
"82","R_1dhlyHMvZcxNoJ4","standard","2","18","LP","30","37.835","NaN","39.038","1.203","NaN","0","186",NA
"83","R_1dhlyHMvZcxNoJ4","standard","2","19","LP","1.25738905644119","40.043","41.309","41.333","1.29","0.024","3","189",NA
"84","R_1dhlyHMvZcxNoJ4","standard","2","20","LP","1.25738905644119","42.338","NaN","43.235","0.897","NaN","0","189",NA
"85","R_1dhlyHMvZcxNoJ4","standard","2","21","LP","2.15079707022835","44.242","NaN","44.88","0.638","NaN","0","189",NA
"86","R_1dhlyHMvZcxNoJ4","standard","2","22","LP","13.0392072382594","45.893","NaN","46.779","0.886","NaN","0","189",NA
"87","R_1dhlyHMvZcxNoJ4","standard","2","23","LP","0.661783713916415","47.787","48.451","48.701","0.914","0.25","3","192",NA
"88","R_1dhlyHMvZcxNoJ4","standard","2","24","LP","0.661783713916415","49.722","50.386","50.498","0.776","0.112","3","195",NA
"89","R_1dhlyHMvZcxNoJ4","standard","2","25","LP","0.264713485566566","51.503","51.77",NA,"1.268",NA,"0","195",NA
"90","R_1dhlyHMvZcxNoJ4","standard","2","26","LP","1.25738905644119","53.779","NaN","54.295","0.516","NaN","0","195",NA
"91","R_1dhlyHMvZcxNoJ4","standard","2","27","LP","2.15079707022835","55.316","NaN","56.083","0.767","NaN","0","195",NA
"92","R_1dhlyHMvZcxNoJ4","standard","2","28","LP","19.8235243429556","57.09","NaN","58.03","0.94","NaN","0","195",NA
"93","R_1dhlyHMvZcxNoJ4","standard","2","29","LP","0.264713485566566","59.038","59.311","59.558","0.52","0.247","3","198",NA
"94","R_1dhlyHMvZcxNoJ4","standard","2","30","LP","1.25738905644119","60.563","NaN","61.194","0.631","NaN","0","198",NA
"95","R_1dhlyHMvZcxNoJ4","standard","2","31","LP","0.264713485566566","62.203","62.503","62.82","0.617","0.317","3","201",NA
"96","R_1dhlyHMvZcxNoJ4","standard","2","32","LP","2.15079707022835","63.827","NaN","64.35","0.523","NaN","0","201",NA
"97","R_1dhlyHMvZcxNoJ4","standard","2","33","LP","1.25738905644119","65.355","NaN","65.913","0.558","NaN","0","201",NA
"98","R_1dhlyHMvZcxNoJ4","standard","2","34","LP","30","66.915","NaN","67.431","0.516","NaN","0","201",NA
"99","R_1dhlyHMvZcxNoJ4","standard","2","35","LP","3.49090909090909","68.438","NaN","68.948","0.51","NaN","0","201",NA
"100","R_1dhlyHMvZcxNoJ4","standard","2","36","LP","30","69.955","NaN","70.503","0.548","NaN","0","201",NA
"101","R_1dhlyHMvZcxNoJ4","standard","2","37","LP","13.0392072382594","71.521","NaN","72.139","0.618","NaN","0","201",NA
"102","R_1dhlyHMvZcxNoJ4","standard","2","38","LP","1.25738905644119","73.147","NaN","73.808","0.661","NaN","0","201",NA
"103","R_1dhlyHMvZcxNoJ4","standard","2","39","LP","2.15079707022835","74.811","NaN","75.547","0.736","NaN","0","201",NA
"104","R_1dhlyHMvZcxNoJ4","standard","2","40","LP","3.49090909090909","76.565","NaN","77.196","0.631","NaN","0","201",NA
"105","R_1dhlyHMvZcxNoJ4","standard","2","41","LP","3.49090909090909","78.202","NaN","78.78","0.578","NaN","0","201",NA
"106","R_1dhlyHMvZcxNoJ4","standard","2","42","LP","19.8235243429556","79.786","NaN","80.382","0.596","NaN","0","201",NA
"107","R_1dhlyHMvZcxNoJ4","standard","2","43","LP","8.51632916846187","81.388","NaN","81.949","0.561","NaN","0","201",NA
"108","R_1dhlyHMvZcxNoJ4","standard","2","44","LP","30","82.955","NaN","83.543","0.588","NaN","0","201",NA
"109","R_1dhlyHMvZcxNoJ4","standard","2","45","LP","13.0392072382594","84.559","NaN","85.151","0.592","NaN","0","201",NA
"110","R_1dhlyHMvZcxNoJ4","standard","2","46","LP","0.661783713916415","86.155","NaN","86.746","0.591","NaN","0","201",NA
"111","R_1dhlyHMvZcxNoJ4","standard","2","47","LP","0.661783713916415","87.756","NaN","88.349","0.593","NaN","0","201",NA
"112","R_1dhlyHMvZcxNoJ4","standard","2","48","LP","0.661783713916415","89.354","NaN","89.824","0.47","NaN","0","201",NA
"113","R_1dhlyHMvZcxNoJ4","standard","2","49","LP","8.51632916846187","90.834","NaN","91.346","0.512","NaN","0","201",NA
"114","R_1dhlyHMvZcxNoJ4","standard","2","50","LP","19.8235243429556","92.351","NaN","92.871","0.52","NaN","0","201",NA
"115","R_1dhlyHMvZcxNoJ4","standard","2","51","LP","30","93.875","NaN","94.85","0.975","NaN","0","201",NA
"116","R_1dhlyHMvZcxNoJ4","standard","2","52","LP","1.25738905644119","95.851","NaN","96.39","0.539","NaN","0","201",NA
"117","R_1dhlyHMvZcxNoJ4","standard","2","53","LP","8.51632916846187","97.395","NaN","97.942","0.547","NaN","0","201",NA
"118","R_1dhlyHMvZcxNoJ4","standard","2","54","LP","0.661783713916415","98.942","NaN","99.606","0.664","NaN","0","201",NA
"119","R_1dhlyHMvZcxNoJ4","standard","2","55","LP","2.15079707022835","100.611","NaN","101.287","0.676","NaN","0","201",NA
"120","R_1dhlyHMvZcxNoJ4","standard","2","56","LP","3.49090909090909","102.315","NaN","103.082","0.767","NaN","0","201",NA
"121","R_1dhlyHMvZcxNoJ4","standard","2","57","LP","0.264713485566566","104.09","104.354","104.725","0.635","0.371","3","204",NA
"122","R_1dhlyHMvZcxNoJ4","standard","2","58","LP","19.8235243429556","105.761","NaN","106.543","0.782","NaN","0","204",NA
"123","R_1dhlyHMvZcxNoJ4","standard","2","59","LP","0.264713485566566","107.548","107.83","108.03","0.482","0.2","3","207",NA
"124","R_1dhlyHMvZcxNoJ4","standard","2","60","LP","30","109.035","NaN","109.48","0.445","NaN","0","207",NA
"125","R_1dhlyHMvZcxNoJ4","standard","2","61","LP","1.25738905644119","110.503","NaN","111.119","0.616","NaN","0","207",NA
"126","R_1dhlyHMvZcxNoJ4","standard","2","62","LP","0.264713485566566","112.131","112.409","112.678","0.547","0.269","3","210",NA
"127","R_1dhlyHMvZcxNoJ4","standard","2","63","LP","3.49090909090909","113.682","NaN","114.17","0.488","NaN","0","210",NA
"128","R_1dhlyHMvZcxNoJ4","standard","2","64","LP","0.661783713916415","115.179","NaN","115.618","0.439","NaN","0","210",NA
"129","R_1dhlyHMvZcxNoJ4","standard","2","65","LP","8.51632916846187","116.619","NaN","116.918","0.299","NaN","0","210",NA
"130","R_1dhlyHMvZcxNoJ4","standard","2","66","LP","0.661783713916415","117.922","NaN","118.413","0.491","NaN","0","210",NA
"131","R_1dhlyHMvZcxNoJ4","standard","2","67","LP","13.0392072382594","119.418","NaN","119.98","0.562","NaN","0","210",NA
"132","R_1dhlyHMvZcxNoJ4","standard","2","68","LP","3.49090909090909","120.987","NaN","121.59","0.603","NaN","0","210",NA
"133","R_1dhlyHMvZcxNoJ4","standard","2","69","LP","13.0392072382594","122.595","NaN","122.999","0.404","NaN","0","210",NA
"134","R_1dhlyHMvZcxNoJ4","standard","2","70","LP","1.25738905644119","124.003","NaN","124.55","0.547","NaN","0","210",NA
"135","R_1dhlyHMvZcxNoJ4","standard","2","71","LP","13.0392072382594","125.554","NaN","126.079","0.525","NaN","0","210",NA
"136","R_1dhlyHMvZcxNoJ4","standard","2","72","LP","5.5010771219302","127.083","NaN","127.598","0.515","NaN","0","210",NA
"137","R_1dhlyHMvZcxNoJ4","standard","2","73","LP","1.25738905644119","128.619","NaN","129.169","0.55","NaN","0","210",NA
"138","R_1dhlyHMvZcxNoJ4","standard","2","74","LP","13.0392072382594","130.17","NaN","130.682","0.512","NaN","0","210",NA
"139","R_1dhlyHMvZcxNoJ4","standard","2","75","LP","30","131.682","NaN","132.191","0.509","NaN","0","210",NA
"140","R_1dhlyHMvZcxNoJ4","standard","2","76","LP","0.264713485566566","133.222","133.503","133.628","0.406","0.125","3","213",NA
"141","R_1dhlyHMvZcxNoJ4","standard","2","77","LP","5.5010771219302","134.635","NaN","134.999","0.364","NaN","0","213",NA
"142","R_1dhlyHMvZcxNoJ4","standard","2","78","LP","3.49090909090909","136.003","NaN","136.3","0.297","NaN","0","213",NA
"143","R_1dhlyHMvZcxNoJ4","standard","2","79","LP","19.8235243429556","137.312","NaN","137.79","0.478","NaN","0","213",NA
"144","R_1dhlyHMvZcxNoJ4","standard","2","80","LP","30","138.815","NaN","139.061","0.246","NaN","0","213",NA
"145","R_1dhlyHMvZcxNoJ4","standard","2","81","LP","1.25738905644119","140.066","NaN","140.621","0.555","NaN","0","213",NA
"146","R_1dhlyHMvZcxNoJ4","standard","2","82","LP","13.0392072382594","141.627","NaN","142.038","0.411","NaN","0","213",NA
"147","R_1dhlyHMvZcxNoJ4","standard","2","83","LP","19.8235243429556","143.044","NaN","143.639","0.595","NaN","0","213",NA
"148","R_1dhlyHMvZcxNoJ4","standard","2","84","LP","2.15079707022835","144.645","NaN","145.272","0.627","NaN","0","213",NA
"149","R_1dhlyHMvZcxNoJ4","standard","2","85","LP","19.8235243429556","146.276","NaN","146.871","0.595","NaN","0","213",NA
"150","R_1dhlyHMvZcxNoJ4","standard","2","86","LP","3.49090909090909","147.875","NaN","148.504","0.629","NaN","0","213",NA
"151","R_1dhlyHMvZcxNoJ4","standard","2","87","LP","3.49090909090909","149.522","NaN","150.158","0.636","NaN","0","213",NA
"152","R_1dhlyHMvZcxNoJ4","standard","2","88","LP","0.264713485566566","151.164","151.436","151.582","0.418","0.146","3","216",NA
"153","R_1dhlyHMvZcxNoJ4","standard","2","89","LP","2.15079707022835","152.587","NaN","152.94","0.353","NaN","0","216",NA
"154","R_1dhlyHMvZcxNoJ4","standard","2","90","LP","1.25738905644119","153.943","NaN","154.341","0.398","NaN","0","216",NA
"155","R_1dhlyHMvZcxNoJ4","standard","2","91","LP","8.51632916846187","155.346","NaN","155.793","0.447","NaN","0","216",NA
"156","R_1dhlyHMvZcxNoJ4","standard","2","92","LP","1.25738905644119","156.801","NaN","157.451","0.65","NaN","0","216",NA
"157","R_1dhlyHMvZcxNoJ4","standard","2","93","LP","8.51632916846187","158.452","NaN","159.031","0.579","NaN","0","216",NA
"158","R_1dhlyHMvZcxNoJ4","standard","2","94","LP","1.25738905644119","160.038","NaN","160.391","0.353","NaN","0","216",NA
"159","R_1dhlyHMvZcxNoJ4","standard","2","95","LP","0.661783713916415","161.397","NaN","161.634","0.237","NaN","0","216",NA
"160","R_1dhlyHMvZcxNoJ4","standard","2","96","LP","0.264713485566566","162.636","162.91","162.926","0.29","0.016","3","219",NA
"161","R_1dhlyHMvZcxNoJ4","standard","2","97","LP","13.0392072382594","163.931","NaN","164.328","0.397","NaN","0","219",NA
"162","R_1dhlyHMvZcxNoJ4","standard","2","98","LP","19.8235243429556","165.332","NaN","165.679","0.347","NaN","0","219",NA
"163","R_1dhlyHMvZcxNoJ4","standard","2","99","LP","3.49090909090909","166.686","NaN","167.022","0.336","NaN","0","219",NA
"164","R_1dhlyHMvZcxNoJ4","standard","2","100","LP","1.25738905644119","168.028","NaN","168.369","0.341","NaN","0","219",NA
"165","R_1dhlyHMvZcxNoJ4","standard","2","101","LP","3.49090909090909","169.385","NaN","169.671","0.286","NaN","0","219",NA
"166","R_1dhlyHMvZcxNoJ4","standard","2","102","LP","8.51632916846187","170.677","NaN","171.025","0.348","NaN","0","219",NA
"167","R_1dhlyHMvZcxNoJ4","standard","2","103","LP","30","172.028","NaN","172.356","0.328","NaN","0","219",NA
"168","R_1dhlyHMvZcxNoJ4","standard","2","104","LP","13.0392072382594","173.364","NaN","173.633","0.269","NaN","0","219",NA
"169","R_1dhlyHMvZcxNoJ4","standard","2","105","LP","5.5010771219302","174.637","NaN","174.939","0.302","NaN","0","219",NA
"170","R_1dhlyHMvZcxNoJ4","standard","2","106","LP","0.661783713916415","175.947","NaN","176.134","0.187","NaN","0","219",NA
"171","R_1dhlyHMvZcxNoJ4","standard","2","107","LP","30","177.141","NaN","177.513","0.372","NaN","0","219",NA
"172","R_1dhlyHMvZcxNoJ4","standard","2","108","LP","5.5010771219302","178.538","NaN","178.845","0.307","NaN","0","219",NA
"173","R_1dhlyHMvZcxNoJ4","standard","2","109","LP","2.15079707022835","179.848","NaN","180.211","0.363","NaN","0","219",NA
"174","R_1dhlyHMvZcxNoJ4","standard","2","110","LP","30","181.222","NaN","181.751","0.529","NaN","0","219",NA
"175","R_1dhlyHMvZcxNoJ4","standard","2","111","LP","13.0392072382594","182.755","NaN","182.99","0.235","NaN","0","219",NA
"176","R_1dhlyHMvZcxNoJ4","standard","2","112","LP","19.8235243429556","184.004","NaN","184.271","0.267","NaN","0","219",NA
"177","R_1dhlyHMvZcxNoJ4","standard","2","113","LP","2.15079707022835","185.276","NaN","185.52","0.244","NaN","0","219",NA
"178","R_1dhlyHMvZcxNoJ4","standard","2","114","LP","30","186.539","NaN","186.76","0.221","NaN","0","219",NA
"179","R_1dhlyHMvZcxNoJ4","standard","2","115","LP","1.25738905644119","187.764","NaN","188.031","0.267","NaN","0","219",NA
"180","R_1dhlyHMvZcxNoJ4","standard","2","116","LP","0.661783713916415","189.048","NaN","189.364","0.316","NaN","0","219",NA
"181","R_1dhlyHMvZcxNoJ4","standard","2","117","LP","30","190.372","NaN","190.51","0.138","NaN","0","219",NA
"182","R_1dhlyHMvZcxNoJ4","standard","2","118","LP","3.49090909090909","191.536","NaN","191.768","0.232","NaN","0","219",NA
"183","R_1dhlyHMvZcxNoJ4","standard","2","119","LP","1.25738905644119","192.772","NaN","193.024","0.252","NaN","0","219",NA
"184","R_1dhlyHMvZcxNoJ4","standard","2","120","LP","3.49090909090909","194.028","NaN","194.26","0.232","NaN","0","219",NA
"185","R_1dhlyHMvZcxNoJ4","standard","2","121","LP","3.49090909090909","195.272","NaN","195.478","0.206","NaN","0","219",NA
"186","R_1dhlyHMvZcxNoJ4","standard","2","122","LP","2.15079707022835","196.504","NaN","196.671","0.167","NaN","0","219",NA
"187","R_1dhlyHMvZcxNoJ4","standard","2","123","LP","0.264713485566566","197.676","NaN","197.902","0.226","NaN","0","219",NA
"188","R_1dhlyHMvZcxNoJ4","standard","2","124","LP","1.25738905644119","198.917","NaN","199.102","0.185","NaN","0","219",NA
"189","R_1dhlyHMvZcxNoJ4","standard","2","125","LP","2.15079707022835","200.107","NaN","200.362","0.255","NaN","0","219",NA
"190","R_1dhlyHMvZcxNoJ4","standard","2","126","LP","0.661783713916415","201.372","NaN","201.635","0.263","NaN","0","219",NA
"191","R_1dhlyHMvZcxNoJ4","standard","2","127","LP","2.15079707022835","202.635","NaN","202.878","0.243","NaN","0","219",NA
"192","R_1dhlyHMvZcxNoJ4","standard","2","128","LP","13.0392072382594","203.909","NaN","204.12","0.211","NaN","0","219",NA
"193","R_1dhlyHMvZcxNoJ4","standard","2","129","LP","3.49090909090909","205.129","NaN","205.368","0.239","NaN","0","219",NA
"194","R_1dhlyHMvZcxNoJ4","standard","2","130","LP","13.0392072382594","206.378","NaN","206.612","0.234","NaN","0","219",NA
"195","R_1dhlyHMvZcxNoJ4","standard","2","131","LP","8.51632916846187","207.619","NaN","208.031","0.412","NaN","0","219",NA
"196","R_1dhlyHMvZcxNoJ4","standard","2","132","LP","3.49090909090909","209.035","NaN","209.34","0.305","NaN","0","219",NA
"197","R_1dhlyHMvZcxNoJ4","standard","2","133","LP","2.15079707022835","210.346","NaN","210.628","0.282","NaN","0","219",NA
"198","R_1dhlyHMvZcxNoJ4","standard","2","134","LP","30","211.629","NaN","211.94","0.311","NaN","0","219",NA
"199","R_1dhlyHMvZcxNoJ4","standard","2","135","LP","8.51632916846187","212.942","NaN","213.286","0.344","NaN","0","219",NA
"200","R_1dhlyHMvZcxNoJ4","standard","2","136","LP","0.661783713916415","214.302","NaN","214.61","0.308","NaN","0","219",NA
"201","R_1dhlyHMvZcxNoJ4","standard","2","137","LP","5.5010771219302","215.716","NaN","215.886","0.17","NaN","0","219",NA
"202","R_1dhlyHMvZcxNoJ4","standard","2","138","LP","3.49090909090909","216.895","NaN","217.245","0.35","NaN","0","219",NA
"203","R_1dhlyHMvZcxNoJ4","standard","2","139","LP","0.661783713916415","218.251","NaN","218.73","0.479","NaN","0","219",NA
"204","R_1dhlyHMvZcxNoJ4","standard","2","140","LP","3.49090909090909","219.731","NaN","220.155","0.424","NaN","0","219",NA
"205","R_1dhlyHMvZcxNoJ4","standard","2","141","LP","2.15079707022835","221.161","NaN","221.658","0.497","NaN","0","219",NA
"206","R_1dhlyHMvZcxNoJ4","standard","2","142","LP","13.0392072382594","222.662","NaN","223.06","0.398","NaN","0","219",NA
"207","R_1dhlyHMvZcxNoJ4","standard","2","143","LP","1.25738905644119","224.066","NaN","224.55","0.484","NaN","0","219",NA
"208","R_1dhlyHMvZcxNoJ4","standard","2","144","LP","0.661783713916415","225.554","NaN","226.053","0.499","NaN","0","219",NA
"209","R_1dhlyHMvZcxNoJ4","standard","2","145","LP","30","227.06","NaN","227.4","0.34","NaN","0","219",NA
"210","R_1dhlyHMvZcxNoJ4","standard","2","146","LP","8.51632916846187","228.403","NaN","228.85","0.447","NaN","0","219",NA
"211","R_1dhlyHMvZcxNoJ4","standard","2","147","LP","3.49090909090909","229.85","NaN","230.09","0.24","NaN","0","219",NA
"212","R_1dhlyHMvZcxNoJ4","standard","2","148","LP","1.25738905644119","231.09","NaN","231.349","0.259","NaN","0","219",NA
"213","R_1dhlyHMvZcxNoJ4","standard","2","149","LP","0.264713485566566","232.355","NaN","232.499","0.144","NaN","0","219",NA
"214","R_1dhlyHMvZcxNoJ4","standard","2","150","LP","0.264713485566566","233.534","NaN","233.771","0.237","NaN","0","219",NA
"215","R_1dhlyHMvZcxNoJ4","standard","2","151","LP","3.49090909090909","234.778","NaN","234.893","0.115","NaN","0","219",NA
"216","R_1dhlyHMvZcxNoJ4","standard","2","152","LP","8.51632916846187","235.913","NaN","236.071","0.158","NaN","0","219",NA
"217","R_1dhlyHMvZcxNoJ4","standard","2","153","LP","8.51632916846187","237.076","NaN","237.256","0.18","NaN","0","219",NA
"218","R_1dhlyHMvZcxNoJ4","standard","2","154","LP","19.8235243429556","238.259","NaN","238.505","0.246","NaN","0","219",NA
"219","R_1dhlyHMvZcxNoJ4","standard","2","155","LP","30","239.535","NaN","239.741","0.206","NaN","0","219",NA
"220","R_1dhlyHMvZcxNoJ4","standard","2","156","LP","13.0392072382594","240.746","NaN","241.029","0.283","NaN","0","219",NA
"221","R_1dhlyHMvZcxNoJ4","standard","2","157","LP","30","242.035","NaN","242.211","0.176","NaN","0","219",NA
"222","R_1dhlyHMvZcxNoJ4","standard","2","158","LP","0.661783713916415","243.218","NaN","243.345","0.127","NaN","0","219",NA
"223","R_1dhlyHMvZcxNoJ4","standard","2","159","LP","19.8235243429556","244.346","NaN","244.51","0.164","NaN","0","219",NA
"224","R_1dhlyHMvZcxNoJ4","standard","2","160","LP","8.51632916846187","245.535","NaN","245.733","0.198","NaN","0","219",NA
"225","R_1dhlyHMvZcxNoJ4","standard","2","161","LP","30","246.738","NaN","246.94","0.202","NaN","0","219",NA
"226","R_1dhlyHMvZcxNoJ4","standard","2","162","LP","2.15079707022835","247.941","NaN","248.07","0.129","NaN","0","219",NA
"227","R_1dhlyHMvZcxNoJ4","standard","2","163","LP","30","249.074","NaN","249.219","0.145","NaN","0","219",NA
"228","R_1dhlyHMvZcxNoJ4","standard","2","164","LP","19.8235243429556","250.223","NaN","250.37","0.147","NaN","0","219",NA
"229","R_1dhlyHMvZcxNoJ4","standard","2","165","LP","0.661783713916415","251.371","NaN","251.474","0.103","NaN","0","219",NA
"230","R_1dhlyHMvZcxNoJ4","standard","2","166","LP","13.0392072382594","252.474","NaN","252.618","0.144","NaN","0","219",NA
"231","R_1dhlyHMvZcxNoJ4","standard","2","167","LP","13.0392072382594","253.633","NaN","253.88","0.247","NaN","0","219",NA
"232","R_1dhlyHMvZcxNoJ4","standard","2","168","LP","0.661783713916415","254.909","NaN","255.234","0.325","NaN","0","219",NA
"233","R_1dhlyHMvZcxNoJ4","standard","2","169","LP","30","256.235","NaN","256.519","0.284","NaN","0","219",NA
"234","R_1dhlyHMvZcxNoJ4","standard","2","170","LP","19.8235243429556","257.522","NaN","257.916","0.394","NaN","0","219",NA
"235","R_1dhlyHMvZcxNoJ4","standard","2","171","LP","30","258.919","NaN","259.239","0.32","NaN","0","219",NA
"236","R_1dhlyHMvZcxNoJ4","standard","2","172","LP","19.8235243429556","260.243","NaN","260.352","0.109","NaN","0","219",NA
"237","R_1dhlyHMvZcxNoJ4","standard","2","173","LP","8.51632916846187","261.361","NaN","261.495","0.134","NaN","0","219",NA
"238","R_1dhlyHMvZcxNoJ4","standard","2","174","LP","3.49090909090909","262.5","NaN","262.759","0.259","NaN","0","219",NA
"239","R_1dhlyHMvZcxNoJ4","standard","2","175","LP","2.15079707022835","263.768","NaN","263.895","0.127","NaN","0","219",NA
"240","R_1dhlyHMvZcxNoJ4","standard","2","176","LP","8.51632916846187","264.91","NaN","265.143","0.233","NaN","0","219",NA
"241","R_1dhlyHMvZcxNoJ4","standard","2","177","LP","30","266.148","NaN","266.232","0.084","NaN","0","219",NA
"242","R_1dhlyHMvZcxNoJ4","standard","2","178","LP","13.0392072382594","267.235","NaN","267.48","0.245","NaN","0","219",NA
"243","R_1dhlyHMvZcxNoJ4","standard","2","179","LP","19.8235243429556","268.484","NaN","268.559","0.075","NaN","0","219",NA
"244","R_1dhlyHMvZcxNoJ4","standard","2","180","LP","0.264713485566566","269.563","NaN","269.683","0.12","NaN","0","219",NA
"245","R_1dhlyHMvZcxNoJ4","standard","2","181","LP","0.264713485566566","270.754","NaN","270.842","0.088","NaN","0","219",NA
"246","R_1dhlyHMvZcxNoJ4","standard","2","182","LP","5.5010771219302","271.843","NaN","271.983","0.14","NaN","0","219",NA
"247","R_1dhlyHMvZcxNoJ4","standard","2","183","LP","19.8235243429556","272.989","NaN","273.112","0.123","NaN","0","219",NA
"248","R_1dhlyHMvZcxNoJ4","standard","2","184","LP","19.8235243429556","274.129","NaN","274.29","0.161","NaN","0","219",NA
"249","R_1dhlyHMvZcxNoJ4","standard","2","185","LP","30","275.302","NaN","275.451","0.149","NaN","0","219",NA
"250","R_1dhlyHMvZcxNoJ4","standard","2","186","LP","0.661783713916415","276.452","NaN","276.621","0.169","NaN","0","219",NA
"251","R_1dhlyHMvZcxNoJ4","standard","2","187","LP","2.15079707022835","277.628","NaN","277.87","0.242","NaN","0","219",NA
"252","R_1dhlyHMvZcxNoJ4","standard","2","188","LP","13.0392072382594","278.886","NaN","279.1","0.214","NaN","0","219",NA
"253","R_1dhlyHMvZcxNoJ4","standard","2","189","LP","0.264713485566566","280.131","NaN","280.311","0.18","NaN","0","219",NA
"254","R_1dhlyHMvZcxNoJ4","standard","2","190","LP","5.5010771219302","281.335","NaN","281.419","0.084","NaN","0","219",NA
"255","R_1dhlyHMvZcxNoJ4","standard","2","191","LP","0.264713485566566","282.42","NaN","282.532","0.112","NaN","0","219",NA
"256","R_1dhlyHMvZcxNoJ4","standard","2","192","LP","0.661783713916415","283.538","NaN","283.709","0.171","NaN","0","219",NA
"257","R_1dhlyHMvZcxNoJ4","standard","2","193","LP","19.8235243429556","284.72","NaN","284.834","0.114","NaN","0","219",NA
"258","R_1dhlyHMvZcxNoJ4","standard","2","194","LP","19.8235243429556","285.836","NaN","286.044","0.208","NaN","0","219",NA
"259","R_1dhlyHMvZcxNoJ4","standard","2","195","LP","2.15079707022835","287.046","NaN","287.142","0.096","NaN","0","219",NA
"260","R_1dhlyHMvZcxNoJ4","standard","2","196","LP","0.661783713916415","288.148","NaN","288.172","0.024","NaN","0","219",NA
"261","R_1dhlyHMvZcxNoJ4","standard","2","197","LP","8.51632916846187","289.184","NaN","289.203","0.019","NaN","0","219",NA
"262","R_1dhlyHMvZcxNoJ4","standard","2","198","LP","2.15079707022835","290.204","NaN","290.238","0.034","NaN","0","219",NA
"263","R_1dhlyHMvZcxNoJ4","standard","2","199","LP","5.5010771219302","291.243","NaN","291.356","0.113","NaN","0","219",NA
"264","R_1dhlyHMvZcxNoJ4","standard","2","200","LP","3.49090909090909","292.364","NaN","292.49","0.126","NaN","0","219",NA
"265","R_1dhlyHMvZcxNoJ4","standard","2","201","LP","30","293.492","NaN","293.542","0.05","NaN","0","219",NA
"266","R_1dhlyHMvZcxNoJ4","standard","2","202","LP","5.5010771219302","294.574","NaN","294.576","0.002","NaN","0","219",NA
"267","R_1dhlyHMvZcxNoJ4","standard","2","203","LP","5.5010771219302","295.58","NaN","295.741","0.161","NaN","0","219",NA
"268","R_1dhlyHMvZcxNoJ4","standard","2","204","LP","30","296.747","NaN","296.872","0.125","NaN","0","219",NA
"269","R_1dhlyHMvZcxNoJ4","standard","2","205","LP","0.661783713916415","297.876","NaN","297.934","0.058","NaN","0","219",NA
"270","R_1dhlyHMvZcxNoJ4","standard","2","206","LP","0.264713485566566","298.959","NaN","298.976","0.017","NaN","0","219",NA
"271","R_1dhlyHMvZcxNoJ4","standard","2","207","LP","0.264713485566566","299.98","NaN","300.095","0.115","NaN","0","219",NA
"272","R_1dhlyHMvZcxNoJ4","standard","2","208","LP","30","301.129","NaN","301.232","0.103","NaN","0","219",NA
"273","R_1dhlyHMvZcxNoJ4","standard","2","209","LP","8.51632916846187","302.237","NaN","302.321","0.084","NaN","0","219",NA
"274","R_1dhlyHMvZcxNoJ4","standard","2","210","LP","30","303.327","NaN","303.399","0.072","NaN","0","219",NA
"275","R_1dhlyHMvZcxNoJ4","standard","2","211","LP","8.51632916846187","304.404","NaN","304.511","0.107","NaN","0","219",NA
"276","R_1dhlyHMvZcxNoJ4","standard","2","212","LP","5.5010771219302","305.528","NaN","305.609","0.081","NaN","0","219",NA
"277","R_1dhlyHMvZcxNoJ4","standard","2","213","LP","3.49090909090909","306.613","NaN","306.679","0.066","NaN","0","219",NA
"278","R_1dhlyHMvZcxNoJ4","standard","2","214","LP","8.51632916846187","307.684","NaN","307.801","0.117","NaN","0","219",NA
"279","R_1dhlyHMvZcxNoJ4","standard","2","215","LP","19.8235243429556","308.817","NaN","308.951","0.134","NaN","0","219",NA
"280","R_1dhlyHMvZcxNoJ4","standard","2","216","LP","8.51632916846187","309.969","NaN","310.092","0.123","NaN","0","219",NA
"281","R_1dhlyHMvZcxNoJ4","standard","2","217","LP","19.8235243429556","311.095","NaN","311.141","0.046","NaN","0","219",NA
"282","R_1dhlyHMvZcxNoJ4","standard","2","218","LP","30","312.15","NaN","312.31","0.16","NaN","0","219",NA
"283","R_1dhlyHMvZcxNoJ4","standard","2","219","LP","30","313.316","NaN","313.548","0.232","NaN","0","219",NA
"284","R_1dhlyHMvZcxNoJ4","standard","2","220","LP","3.49090909090909","314.555","NaN","314.632","0.077","NaN","0","219",NA
"285","R_1dhlyHMvZcxNoJ4","standard","2","221","LP","19.8235243429556","315.633","NaN","315.689","0.056","NaN","0","219",NA
"286","R_1dhlyHMvZcxNoJ4","standard","2","222","LP","13.0392072382594","316.692","NaN","316.746","0.054","NaN","0","219",NA
"287","R_1dhlyHMvZcxNoJ4","standard","2","223","LP","5.5010771219302","317.748","NaN","317.868","0.12","NaN","0","219",NA
"288","R_1dhlyHMvZcxNoJ4","standard","2","224","LP","5.5010771219302","318.902","NaN","318.951","0.049","NaN","0","219",NA
"289","R_1dhlyHMvZcxNoJ4","standard","2","225","LP","3.49090909090909","319.956","NaN","320.063","0.107","NaN","0","219",NA
"290","R_1dhlyHMvZcxNoJ4","standard","2","226","LP","19.8235243429556","321.076","NaN","321.231","0.155","NaN","0","219",NA
"291","R_1dhlyHMvZcxNoJ4","standard","2","227","LP","0.661783713916415","322.253","322.915",NA,"1.667",NA,"0","219",NA
"292","R_1dhlyHMvZcxNoJ4","standard","2","228","LP","3.49090909090909","324.922","NaN","325.206","0.284","NaN","0","219",NA
"293","R_1dhlyHMvZcxNoJ4","standard","2","229","LP","3.49090909090909","326.219","NaN","326.291","0.072","NaN","0","219",NA
"294","R_1dhlyHMvZcxNoJ4","standard","2","230","LP","1.25738905644119","327.299","NaN","328.274","0.975","NaN","0","219",NA
"295","R_1dhlyHMvZcxNoJ4","standard","2","231","LP","19.8235243429556","329.288","NaN","329.386","0.098","NaN","0","219",NA
"296","R_1dhlyHMvZcxNoJ4","standard","2","232","LP","2.15079707022835","330.387","NaN","330.572","0.185","NaN","0","219",NA
"297","R_1dhlyHMvZcxNoJ4","standard","2","233","LP","2.15079707022835","331.579","NaN","331.752","0.173","NaN","0","219",NA
"298","R_1dhlyHMvZcxNoJ4","standard","2","234","LP","13.0392072382594","332.757","NaN","332.912","0.155","NaN","0","219",NA
"299","R_1dhlyHMvZcxNoJ4","standard","2","235","LP","13.0392072382594","333.914","NaN","334.086","0.172","NaN","0","219",NA
"300","R_1dhlyHMvZcxNoJ4","standard","2","236","LP","0.661783713916415","335.09","NaN","335.23","0.14","NaN","0","219",NA
"301","R_1dhlyHMvZcxNoJ4","standard","2","237","LP","0.264713485566566","336.234","NaN","336.36","0.126","NaN","0","219",NA
"302","R_1dhlyHMvZcxNoJ4","standard","2","238","LP","0.661783713916415","337.364","NaN","337.56","0.196","NaN","0","219",NA
"303","R_1dhlyHMvZcxNoJ4","standard","2","239","LP","3.49090909090909","338.561","NaN","338.733","0.172","NaN","0","219",NA
"304","R_1dhlyHMvZcxNoJ4","standard","2","240","LP","2.15079707022835","339.744","NaN","339.91","0.166","NaN","0","219",NA
"305","R_1dhlyHMvZcxNoJ4","standard","2","241","LP","1.25738905644119","340.912","NaN","341.193","0.281","NaN","0","219",NA
"306","R_1dhlyHMvZcxNoJ4","standard","2","242","LP","0.264713485566566","342.207","NaN","342.28","0.073","NaN","0","219",NA
"307","R_1dhlyHMvZcxNoJ4","standard","2","243","LP","0.661783713916415","343.283","NaN","343.522","0.239","NaN","0","219",NA
"308","R_1dhlyHMvZcxNoJ4","standard","2","244","LP","2.15079707022835","344.531","NaN","344.701","0.17","NaN","0","219",NA
"309","R_1dhlyHMvZcxNoJ4","standard","2","245","LP","1.25738905644119","345.722","NaN","345.837","0.115","NaN","0","219",NA
"310","R_1dhlyHMvZcxNoJ4","standard","2","246","LP","30","346.843","NaN","346.851","0.008","NaN","0","219",NA
"311","R_1dhlyHMvZcxNoJ4","standard","2","247","LP","0.264713485566566","347.88","NaN","348.014","0.134","NaN","0","219",NA
"312","R_1dhlyHMvZcxNoJ4","standard","2","248","LP","2.15079707022835","349.018","NaN","349.03","0.012","NaN","0","219",NA
"313","R_1dhlyHMvZcxNoJ4","standard","2","249","LP","19.8235243429556","350.058","NaN","350.131","0.073","NaN","0","219",NA
"314","R_1dhlyHMvZcxNoJ4","standard","2","250","LP","8.51632916846187","351.131","NaN","351.228","0.097","NaN","0","219",NA
"315","R_1dhlyHMvZcxNoJ4","standard","2","251","LP","2.15079707022835","352.234","NaN","352.321","0.087","NaN","0","219",NA
"316","R_1dhlyHMvZcxNoJ4","standard","2","252","LP","0.661783713916415","353.337","NaN","353.407","0.07","NaN","0","219",NA
"317","R_1dhlyHMvZcxNoJ4","standard","2","253","LP","0.661783713916415","354.412","NaN","354.511","0.099","NaN","0","219",NA
"318","R_1dhlyHMvZcxNoJ4","standard","2","254","LP","30","355.518","NaN","355.599","0.081","NaN","0","219",NA
"319","R_1dhlyHMvZcxNoJ4","standard","2","255","LP","2.15079707022835","356.624","NaN","356.694","0.07","NaN","0","219",NA
"320","R_1dhlyHMvZcxNoJ4","standard","2","256","LP","2.15079707022835","357.699","NaN","357.753","0.054","NaN","0","219",NA
"321","R_1dhlyHMvZcxNoJ4","standard","2","257","LP","8.51632916846187","358.756","NaN","358.808","0.052","NaN","0","219",NA
"322","R_1dhlyHMvZcxNoJ4","standard","2","258","LP","30","359.81","NaN","360.01","0.2","NaN","0","219",NA
"323","R_1dhlyHMvZcxNoJ4","standard","2","259","LP","2.15079707022835","361.018","NaN","361.19","0.172","NaN","0","219",NA
"324","R_1dhlyHMvZcxNoJ4","standard","2","260","LP","3.49090909090909","362.198","NaN","362.249","0.051","NaN","0","219",NA
"325","R_1dhlyHMvZcxNoJ4","standard","2","261","LP","1.25738905644119","363.251","NaN","363.28","0.029","NaN","0","219",NA
"326","R_1dhlyHMvZcxNoJ4","standard","2","262","LP","30","364.283","NaN","364.384","0.101","NaN","0","219",NA
"327","R_1dhlyHMvZcxNoJ4","standard","2","263","LP","0.264713485566566","365.386","NaN","365.461","0.075","NaN","0","219",NA
"328","R_1dhlyHMvZcxNoJ4","standard","2","264","LP","2.15079707022835","366.467","NaN","366.48","0.013","NaN","0","219",NA
"329","R_1dhlyHMvZcxNoJ4","standard","2","265","LP","3.49090909090909","367.487","NaN","367.598","0.111","NaN","0","219",NA
"330","R_1dhlyHMvZcxNoJ4","standard","2","266","LP","0.661783713916415","368.602","NaN","368.679","0.077","NaN","0","219",NA
"331","R_1dhlyHMvZcxNoJ4","standard","2","267","LP","19.8235243429556","369.683","NaN","369.781","0.098","NaN","0","219",NA
"332","R_1dhlyHMvZcxNoJ4","standard","2","268","LP","30","370.788","NaN","370.91","0.122","NaN","0","219",NA
"333","R_1dhlyHMvZcxNoJ4","standard","2","269","LP","0.661783713916415","371.912","NaN","372.007","0.095","NaN","0","219",NA
"334","R_1dhlyHMvZcxNoJ4","standard","2","270","LP","0.264713485566566","373.011","373.283",NA,"1.307",NA,"0","219",NA
"335","R_1dhlyHMvZcxNoJ4","standard","2","271","LP","0.264713485566566","375.319","NaN","375.53","0.211","NaN","0","219",NA
"336","R_1dhlyHMvZcxNoJ4","standard","2","272","LP","19.8235243429556","376.537","NaN","376.621","0.084","NaN","0","219",NA
"337","R_1dhlyHMvZcxNoJ4","standard","2","273","LP","3.49090909090909","377.628","NaN","377.731","0.103","NaN","0","219",NA
"338","R_1dhlyHMvZcxNoJ4","standard","2","274","LP","3.49090909090909","378.78","NaN","378.868","0.088","NaN","0","219",NA
"339","R_1dhlyHMvZcxNoJ4","standard","2","275","LP","1.25738905644119","379.869","NaN","379.912","0.043","NaN","0","219",NA
"340","R_1dhlyHMvZcxNoJ4","standard","2","276","LP","1.25738905644119","380.919","NaN","380.959","0.04","NaN","0","219",NA
"341","R_1dhlyHMvZcxNoJ4","standard","2","277","LP","0.661783713916415","381.964","NaN","381.99","0.026","NaN","0","219",NA
"342","R_1dhlyHMvZcxNoJ4","standard","2","278","LP","30","382.995","NaN","383.06","0.065","NaN","0","219",NA
"343","R_1dhlyHMvZcxNoJ4","standard","2","279","LP","3.49090909090909","384.066","NaN","384.16","0.094","NaN","0","219",NA
"344","R_1dhlyHMvZcxNoJ4","standard","2","280","LP","19.8235243429556","385.163","NaN","385.23","0.067","NaN","0","219",NA
"345","R_1dhlyHMvZcxNoJ4","standard","2","281","LP","19.8235243429556","386.231","NaN","386.29","0.059","NaN","0","219",NA
"346","R_1dhlyHMvZcxNoJ4","standard","2","282","LP","1.25738905644119","387.298","NaN","387.343","0.045","NaN","0","219",NA
"347","R_1dhlyHMvZcxNoJ4","standard","2","283","LP","13.0392072382594","388.354","NaN","388.388","0.034","NaN","0","219",NA
"348","R_1dhlyHMvZcxNoJ4","standard","2","284","LP","13.0392072382594","389.411","NaN","389.418","0.007","NaN","0","219",NA
"349","R_1dhlyHMvZcxNoJ4","standard","2","285","LP","2.15079707022835","390.418","NaN","391.371","0.953","NaN","0","219",NA
"350","R_1dhlyHMvZcxNoJ4","standard","2","286","LP","8.51632916846187","392.379","NaN","392.78","0.401","NaN","0","219",NA
"351","R_1dhlyHMvZcxNoJ4","standard","2","287","LP","30","393.78","NaN","394.188","0.408","NaN","0","219",NA
"352","R_1dhlyHMvZcxNoJ4","standard","2","288","LP","1.25738905644119","395.194","NaN","395.523","0.329","NaN","0","219",NA
"353","R_1dhlyHMvZcxNoJ4","standard","2","289","LP","5.5010771219302","396.539","NaN","397.02","0.481","NaN","0","219",NA
"354","R_1dhlyHMvZcxNoJ4","standard","2","290","LP","19.8235243429556","398.026","NaN","398.609","0.583","NaN","0","219",NA
"355","R_1dhlyHMvZcxNoJ4","standard","2","291","LP","0.264713485566566","399.612","399.891","400.151","0.539","0.26","3","222",NA
"356","R_1dhlyHMvZcxNoJ4","standard","2","292","LP","13.0392072382594","401.155","NaN","401.439","0.284","NaN","0","222",NA
"357","R_1dhlyHMvZcxNoJ4","standard","2","293","LP","19.8235243429556","402.443","NaN","402.72","0.277","NaN","0","222",NA
"358","R_1dhlyHMvZcxNoJ4","standard","2","294","LP","30","403.722","NaN","404.078","0.356","NaN","0","222",NA
"359","R_1dhlyHMvZcxNoJ4","standard","2","295","LP","13.0392072382594","405.083","NaN","405.443","0.36","NaN","0","222",NA
"360","R_1dhlyHMvZcxNoJ4","standard","2","296","LP","30","406.446","NaN","406.768","0.322","NaN","0","222",NA
"361","R_1dhlyHMvZcxNoJ4","standard","2","297","LP","0.264713485566566","407.77","NaN","407.9","0.13","NaN","0","222",NA
"362","R_1dhlyHMvZcxNoJ4","standard","2","298","LP","0.661783713916415","408.908","NaN","409.046","0.138","NaN","0","222",NA
"363","R_1dhlyHMvZcxNoJ4","standard","2","299","LP","1.25738905644119","410.051","NaN","410.268","0.217","NaN","0","222",NA
"364","R_1dhlyHMvZcxNoJ4","standard","2","300","LP","0.661783713916415","411.276","NaN","411.389","0.113","NaN","0","222",NA
"365","R_1dhlyHMvZcxNoJ4","standard","2","301","LP","2.15079707022835","412.402","NaN","412.752","0.35","NaN","0","222",NA
"366","R_1dhlyHMvZcxNoJ4","standard","2","302","LP","1.25738905644119","413.754","NaN","414.09","0.336","NaN","0","222",NA
"367","R_1dhlyHMvZcxNoJ4","standard","2","303","LP","13.0392072382594","415.128","NaN","415.399","0.271","NaN","0","222",NA
"368","R_1dhlyHMvZcxNoJ4","standard","2","304","LP","3.49090909090909","416.403","NaN","416.808","0.405","NaN","0","222",NA
"369","R_1dhlyHMvZcxNoJ4","standard","2","305","LP","1.25738905644119","417.809","NaN","418.273","0.464","NaN","0","222",NA
"370","R_1dhlyHMvZcxNoJ4","standard","2","306","LP","2.15079707022835","419.275","NaN","419.75","0.475","NaN","0","222",NA
"371","R_1dhlyHMvZcxNoJ4","standard","2","307","LP","13.0392072382594","420.755","NaN","421.269","0.514","NaN","0","222",NA
"372","R_1dhlyHMvZcxNoJ4","standard","2","308","LP","3.49090909090909","422.274","NaN","422.814","0.54","NaN","0","222",NA
"373","R_1dhlyHMvZcxNoJ4","standard","2","309","LP","13.0392072382594","423.817","NaN","424.29","0.473","NaN","0","222",NA
"374","R_1dhlyHMvZcxNoJ4","standard","2","310","LP","1.25738905644119","425.299","NaN","425.603","0.304","NaN","0","222",NA
"375","R_1dhlyHMvZcxNoJ4","standard","2","311","LP","5.5010771219302","426.613","NaN","428.277","1.664","NaN","0","222",NA
"376","R_1dhlyHMvZcxNoJ4","standard","2","312","LP","19.8235243429556","429.283","NaN","429.891","0.608","NaN","0","222",NA
"377","R_1dhlyHMvZcxNoJ4","standard","2","313","LP","13.0392072382594","430.892","NaN","431.327","0.435","NaN","0","222",NA
"378","R_1dhlyHMvZcxNoJ4","standard","2","314","LP","0.264713485566566","432.332","432.628","432.83","0.498","0.202","3","225",NA
"379","R_1dhlyHMvZcxNoJ4","standard","2","315","LP","30","433.835","NaN","434.174","0.339","NaN","0","225",NA
"380","R_1dhlyHMvZcxNoJ4","standard","2","316","LP","0.661783713916415","435.178","NaN","435.602","0.424","NaN","0","225",NA
"381","R_1dhlyHMvZcxNoJ4","standard","2","317","LP","19.8235243429556","436.602","NaN","437.201","0.599","NaN","0","225",NA
"382","R_1dhlyHMvZcxNoJ4","standard","2","318","LP","0.264713485566566","438.222","438.503","439.158","0.936","0.655","3","228",NA
"383","R_1dhlyHMvZcxNoJ4","standard","2","319","LP","13.0392072382594","440.161","NaN","441.03","0.869","NaN","0","228",NA
"384","R_1dhlyHMvZcxNoJ4","standard","2","320","LP","13.0392072382594","442.035","NaN","444.303","2.268","NaN","0","228",NA
"385","R_1dhlyHMvZcxNoJ4","standard","2","321","LP","0.264713485566566","445.316","445.588","446.21","0.894","0.622","3","231",NA
"386","R_1dhlyHMvZcxNoJ4","standard","2","322","LP","5.5010771219302","447.225","NaN","447.894","0.669","NaN","0","231",NA
"387","R_1dhlyHMvZcxNoJ4","standard","2","323","LP","30","448.918","NaN","450.64","1.722","NaN","0","231",NA
"388","R_1dhlyHMvZcxNoJ4","standard","2","324","LP","13.0392072382594","451.644","NaN","452.323","0.679","NaN","0","231",NA
"389","R_1dhlyHMvZcxNoJ4","standard","2","325","LP","19.8235243429556","453.332","NaN","454.707","1.375","NaN","0","231",NA
"390","R_1dhlyHMvZcxNoJ4","standard","2","326","LP","0.661783713916415","455.723","456.411","456.64","0.917","0.229","3","234",NA
"391","R_1dhlyHMvZcxNoJ4","standard","2","327","LP","0.661783713916415","457.643","NaN","458.171","0.528","NaN","0","234",NA
"392","R_1dhlyHMvZcxNoJ4","standard","2","328","LP","8.51632916846187","459.18","NaN","459.838","0.658","NaN","0","234",NA
"393","R_1dhlyHMvZcxNoJ4","standard","2","329","LP","3.49090909090909","460.843","NaN","461.415","0.572","NaN","0","234",NA
"394","R_1dhlyHMvZcxNoJ4","standard","2","330","LP","1.25738905644119","462.421","NaN","463.252","0.831","NaN","0","234",NA
"395","R_1dhlyHMvZcxNoJ4","standard","2","331","LP","8.51632916846187","464.259","NaN","465.251","0.992","NaN","0","234",NA
"396","R_1dhlyHMvZcxNoJ4","standard","2","332","LP","5.5010771219302","466.251","NaN","467.769","1.518","NaN","0","234",NA
"397","R_1dhlyHMvZcxNoJ4","standard","2","333","LP","2.15079707022835","468.771","470.924","471.58","2.809","0.656","3","237",NA
"398","R_1dhlyHMvZcxNoJ4","standard","2","334","LP","19.8235243429556","472.588","492.412","493.129","20.541","0.717","3","240",NA
"399","R_1dhlyHMvZcxNoJ4","standard","2","335","LP","3.49090909090909","494.131","497.623","498.353","4.222","0.73","3","243",NA
"400","R_1dhlyHMvZcxNoJ4","standard","2","336","LP","3.49090909090909","499.353","502.842","503.471","4.118","0.629","3","246",NA
"401","R_1dhlyHMvZcxNoJ4","standard","2","337","LP","3.49090909090909","504.474","507.97","508.91","4.436","0.94","3","249",NA
"402","R_1dhlyHMvZcxNoJ4","standard","2","338","LP","3.49090909090909","509.914","513.41","514.058","4.144","0.648","3","252",NA
"403","R_1dhlyHMvZcxNoJ4","standard","2","339","LP","3.49090909090909","515.06","518.554","519.182","4.122","0.628","3","255",NA
"404","R_1dhlyHMvZcxNoJ4","standard","2","340","LP","30","520.186","NaN","548.406","28.22","NaN","0","255",NA
"405","R_1dhlyHMvZcxNoJ4","standard","2","341","LP","13.0392072382594","549.411","NaN","553.33","3.919","NaN","0","255",NA
"406","R_1dhlyHMvZcxNoJ4","standard","2","342","LP","3.49090909090909","554.331","557.827","558.413","4.082","0.586","3","258",NA
"407","R_1dhlyHMvZcxNoJ4","standard","2","343","LP","8.51632916846187","559.419","NaN","566.346","6.927","NaN","0","258",NA
"408","R_1dhlyHMvZcxNoJ4","standard","2","344","LP","0.661783713916415","567.347","568.012","568.944","1.597","0.932","3","261",NA
"409","R_1dhlyHMvZcxNoJ4","standard","2","345","LP","3.49090909090909","569.946","573.442","574.153","4.207","0.711","3","264",NA
"410","R_1dhlyHMvZcxNoJ4","standard","2","346","LP","30","575.184","NaN","577.049","1.865","NaN","0","264",NA
"411","R_1dhlyHMvZcxNoJ4","standard","2","347","LP","5.5010771219302","578.052","NaN","583.203","5.151","NaN","0","264",NA
"412","R_1dhlyHMvZcxNoJ4","standard","2","348","LP","5.5010771219302","584.211","589.726","590.369","6.158","0.643","3","267",NA
"413","R_1dhlyHMvZcxNoJ4","standard","2","349","LP","5.5010771219302","591.372","NaN","591.881","0.509","NaN","0","267",NA
"414","R_1dhlyHMvZcxNoJ4","standard","2","350","LP","5.5010771219302","592.883","NaN","597.932","5.049","NaN","0","267",NA
"415","R_1dhlyHMvZcxNoJ4","standard","2","351","LP","0.264713485566566","598.939","599.204","599.941","1.002","0.737","3","270",NA
