"","subject_id","condition","n_block","n_trialIdx","f_timing_condition","n_scheduled_delay","n_trial_start_time","n_rewarded_time_fin","n_sell_time_fin","n_time_waited_fin","RT_fin","n_trial_earnings_fin","n_total_earnings_fin","keypress_times"
"1","R_1DHCtGzazro9v2Q","standard","1","1","HP","12","0.003","12.016","12.436","12.433","0.42","3","3",""
"2","R_1DHCtGzazro9v2Q","standard","1","2","HP","2","13.459","15.481","16.143","2.684","0.662","3","6",""
"3","R_1DHCtGzazro9v2Q","standard","1","3","HP","6","17.159","23.184","23.682","6.523","0.498","3","9",""
"4","R_1DHCtGzazro9v2Q","standard","1","4","HP","20","24.691","44.71","45.153","20.462","0.443","3","12",""
"5","R_1DHCtGzazro9v2Q","standard","1","5","HP","12","46.158","58.179","58.705","12.547","0.526","3","15",""
"6","R_1DHCtGzazro9v2Q","standard","1","6","HP","12","59.71","71.713","72.189","12.479","0.476","3","18",""
"7","R_1DHCtGzazro9v2Q","standard","1","7","HP","8","73.21","81.214","81.697","8.487","0.483","3","21",""
"8","R_1DHCtGzazro9v2Q","standard","1","8","HP","14","82.71","96.731","97.233","14.523","0.502","3","24",""
"9","R_1DHCtGzazro9v2Q","standard","1","9","HP","16","98.239","114.243","114.658","16.419","0.415","3","27",""
"10","R_1DHCtGzazro9v2Q","standard","1","10","HP","6","115.676","121.69","122.169","6.493","0.479","3","30",""
"11","R_1DHCtGzazro9v2Q","standard","1","11","HP","10","123.192","133.207","133.695","10.503","0.488","3","33",""
"12","R_1DHCtGzazro9v2Q","standard","1","12","HP","4","134.706","138.722","139.138","4.432","0.416","3","36",""
"13","R_1DHCtGzazro9v2Q","standard","1","13","HP","6","140.142","146.152","146.588","6.446","0.436","3","39",""
"14","R_1DHCtGzazro9v2Q","standard","1","14","HP","10","147.596","157.605","157.979","10.383","0.374","3","42",""
"15","R_1DHCtGzazro9v2Q","standard","1","15","HP","2","158.991","161.013","161.69","2.699","0.677","3","45",""
"16","R_1DHCtGzazro9v2Q","standard","1","16","HP","2","162.718","164.725","NA","3.011","NA","0","45",""
"17","R_1DHCtGzazro9v2Q","standard","1","17","HP","12","166.731","178.735","179.097","12.366","0.362","3","48",""
"18","R_1DHCtGzazro9v2Q","standard","1","18","HP","20","180.103","200.111","200.542","20.439","0.431","3","51",""
"19","R_1DHCtGzazro9v2Q","standard","1","19","HP","4","201.548","205.57","206.098","4.55","0.528","3","54",""
"20","R_1DHCtGzazro9v2Q","standard","1","20","HP","8","207.114","215.131","215.58","8.466","0.449","3","57",""
"21","R_1DHCtGzazro9v2Q","standard","1","21","HP","14","216.602","230.617","231.055","14.453","0.438","3","60",""
"22","R_1DHCtGzazro9v2Q","standard","1","22","HP","18","232.063","250.069","250.471","18.408","0.402","3","63",""
"23","R_1DHCtGzazro9v2Q","standard","1","23","HP","16","251.484","267.498","267.969","16.485","0.471","3","66",""
"24","R_1DHCtGzazro9v2Q","standard","1","24","HP","4","268.983","272.99","273.437","4.454","0.447","3","69",""
"25","R_1DHCtGzazro9v2Q","standard","1","25","HP","12","274.446","286.455","286.927","12.481","0.472","3","72",""
"26","R_1DHCtGzazro9v2Q","standard","1","26","HP","20","287.945","307.959","308.312","20.367","0.353","3","75",""
"27","R_1DHCtGzazro9v2Q","standard","1","27","HP","16","309.313","325.316","325.782","16.469","0.466","3","78",""
"28","R_1DHCtGzazro9v2Q","standard","1","28","HP","14","326.796","340.81","341.21","14.414","0.4","3","81",""
"29","R_1DHCtGzazro9v2Q","standard","1","29","HP","10","342.213","352.221","352.735","10.522","0.514","3","84",""
"30","R_1DHCtGzazro9v2Q","standard","1","30","HP","6","353.754","359.778","360.276","6.522","0.498","3","87",""
"31","R_1DHCtGzazro9v2Q","standard","1","31","HP","4","361.293","365.309","365.729","4.436","0.42","3","90",""
"32","R_1DHCtGzazro9v2Q","standard","1","32","HP","4","366.739","370.748","371.285","4.546","0.537","3","93",""
"33","R_1DHCtGzazro9v2Q","standard","1","33","HP","12","372.293","384.314","384.719","12.426","0.405","3","96",""
"34","R_1DHCtGzazro9v2Q","standard","1","34","HP","12","385.722","397.726","398.119","12.397","0.393","3","99",""
"35","R_1DHCtGzazro9v2Q","standard","1","35","HP","10","399.121","409.124","409.583","10.462","0.459","3","102",""
"36","R_1DHCtGzazro9v2Q","standard","1","36","HP","4","410.598","414.607","415.065","4.467","0.458","3","105",""
"37","R_1DHCtGzazro9v2Q","standard","1","37","HP","10","416.076","426.091","426.45","10.374","0.359","3","108",""
"38","R_1DHCtGzazro9v2Q","standard","1","38","HP","6","427.452","433.474","433.844","6.392","0.37","3","111",""
"39","R_1DHCtGzazro9v2Q","standard","1","39","HP","14","434.852","448.873","449.261","14.409","0.388","3","114",""
"40","R_1DHCtGzazro9v2Q","standard","1","40","HP","18","450.276","468.287","468.747","18.471","0.46","3","117",""
"41","R_1DHCtGzazro9v2Q","standard","1","41","HP","2","469.757","471.759","472.176","2.419","0.417","3","120",""
"42","R_1DHCtGzazro9v2Q","standard","1","42","HP","18","473.18","491.202","491.59","18.41","0.388","3","123",""
"43","R_1DHCtGzazro9v2Q","standard","1","43","HP","18","492.605","510.618","511.011","18.406","0.393","3","126",""
"44","R_1DHCtGzazro9v2Q","standard","1","44","HP","10","512.021","522.032","522.4","10.379","0.368","3","129",""
"45","R_1DHCtGzazro9v2Q","standard","1","45","HP","6","523.417","529.421","530.062","6.645","0.641","3","132",""
"46","R_1DHCtGzazro9v2Q","standard","1","46","HP","10","531.085","541.095","541.527","10.442","0.432","3","135",""
"47","R_1DHCtGzazro9v2Q","standard","1","47","HP","12","542.536","554.541","554.988","12.452","0.447","3","138",""
"48","R_1DHCtGzazro9v2Q","standard","1","48","HP","6","555.999","562.015","562.508","6.509","0.493","3","141",""
"49","R_1DHCtGzazro9v2Q","standard","1","49","HP","18","563.516","581.518","581.948","18.432","0.43","3","144",""
"50","R_1DHCtGzazro9v2Q","standard","1","50","HP","20","582.967","602.981","603.402","20.435","0.421","3","147",""
"51","R_1DHCtGzazro9v2Q","standard","1","51","HP","4","604.414","608.416","608.893","4.479","0.477","3","150",""
"52","R_1DHCtGzazro9v2Q","standard","1","52","HP","2","609.913","611.918","612.386","2.473","0.468","3","153",""
"53","R_1DHCtGzazro9v2Q","standard","1","53","HP","2","613.396","615.412","615.85","2.454","0.438","3","156",""
"54","R_1DHCtGzazro9v2Q","standard","1","54","HP","10","616.86","626.879","627.321","10.461","0.442","3","159",""
"55","R_1DHCtGzazro9v2Q","standard","1","55","HP","20","628.326","648.33","648.705","20.379","0.375","3","162",""
"56","R_1DHCtGzazro9v2Q","standard","1","56","HP","8","649.711","657.713","658.199","8.488","0.486","3","165",""
"57","R_1DHCtGzazro9v2Q","standard","1","57","HP","20","659.212","679.223","679.668","20.456","0.445","3","168",""
"58","R_1DHCtGzazro9v2Q","standard","1","58","HP","4","680.677","684.692","685.168","4.491","0.476","3","171",""
"59","R_1DHCtGzazro9v2Q","standard","1","59","HP","6","686.177","692.185","692.633","6.456","0.448","3","174",""
"60","R_1DHCtGzazro9v2Q","standard","1","60","HP","20","693.651","713.653","714.251","20.6","0.598","3","177",""
"61","R_1DHCtGzazro9v2Q","standard","1","61","HP","4","715.275","719.29","719.736","4.461","0.446","3","180",""
"62","R_1DHCtGzazro9v2Q","standard","1","62","HP","2","720.742","722.753","723.357","2.615","0.604","3","183",""
"63","R_1DHCtGzazro9v2Q","standard","1","63","HP","10","724.369","734.39","734.958","10.589","0.568","3","186",""
"64","R_1DHCtGzazro9v2Q","standard","1","64","HP","2","735.969","737.99","738.5","2.531","0.51","3","189",""
"65","R_1DHCtGzazro9v2Q","standard","1","65","HP","14","739.534","753.547","754.187","14.653","0.64","3","192",""
"66","R_1DHCtGzazro9v2Q","standard","1","66","HP","8","755.207","763.214","763.788","8.581","0.574","3","195",""
"67","R_1DHCtGzazro9v2Q","standard","1","67","HP","4","764.803","768.813","769.436","4.633","0.623","3","198",""
"68","R_1DHCtGzazro9v2Q","standard","1","68","HP","6","770.447","776.464","776.987","6.54","0.523","3","201",""
"69","R_1DHCtGzazro9v2Q","standard","1","69","HP","20","778.003","798.018","798.451","20.448","0.433","3","204",""
"70","R_1DHCtGzazro9v2Q","standard","1","70","HP","4","799.463","803.486","803.988","4.525","0.502","3","207",""
"71","R_1DHCtGzazro9v2Q","standard","1","71","HP","8","805.002","813.013","813.527","8.525","0.514","3","210",""
"72","R_1DHCtGzazro9v2Q","standard","1","72","HP","16","814.531","830.536","830.956","16.425","0.42","3","213",""
"73","R_1DHCtGzazro9v2Q","standard","1","73","HP","2","831.963","833.984","834.426","2.463","0.442","3","216",""
"74","R_1DHCtGzazro9v2Q","standard","1","74","HP","2","835.436","837.447","837.911","2.475","0.464","3","219",""
"75","R_1DHCtGzazro9v2Q","standard","1","75","HP","6","838.918","844.92","845.384","6.466","0.464","3","222",""
"76","R_1DHCtGzazro9v2Q","standard","1","76","HP","4","846.4","850.415","850.879","4.479","0.464","3","225",""
"77","R_1DHCtGzazro9v2Q","standard","1","77","HP","12","851.884","863.901","864.253","12.369","0.352","3","228",""
"78","R_1DHCtGzazro9v2Q","standard","1","78","HP","20","865.267","885.282","885.692","20.425","0.41","3","231",""
"79","R_1DHCtGzazro9v2Q","standard","2","1","LP","2.15079707022835","0.001","2.158","2.461","2.46","0.303","3","234",NA
"80","R_1DHCtGzazro9v2Q","standard","2","2","LP","3.49090909090909","3.478","NaN","4.768","1.29","NaN","0","234",NA
"81","R_1DHCtGzazro9v2Q","standard","2","3","LP","0.264713485566566","5.778","6.05",NA,"1.282",NA,"0","234",NA
"82","R_1DHCtGzazro9v2Q","standard","2","4","LP","2.15079707022835","8.078","NaN","8.563","0.485","NaN","0","234",NA
"83","R_1DHCtGzazro9v2Q","standard","2","5","LP","13.0392072382594","9.578","NaN","10.635","1.057","NaN","0","234",NA
"84","R_1DHCtGzazro9v2Q","standard","2","6","LP","3.49090909090909","11.645","NaN","12.413","0.768","NaN","0","234",NA
"85","R_1DHCtGzazro9v2Q","standard","2","7","LP","2.15079707022835","13.414","NaN","14.452","1.038","NaN","0","234",NA
"86","R_1DHCtGzazro9v2Q","standard","2","8","LP","8.51632916846187","15.477","NaN","17.124","1.647","NaN","0","234",NA
"87","R_1DHCtGzazro9v2Q","standard","2","9","LP","30","18.128","NaN","19.811","1.683","NaN","0","234",NA
"88","R_1DHCtGzazro9v2Q","standard","2","10","LP","0.661783713916415","20.812","21.493","21.763","0.951","0.27","3","237",NA
"89","R_1DHCtGzazro9v2Q","standard","2","11","LP","13.0392072382594","22.776","NaN","23.762","0.986","NaN","0","237",NA
"90","R_1DHCtGzazro9v2Q","standard","2","12","LP","13.0392072382594","24.776","NaN","25.955","1.179","NaN","0","237",NA
"91","R_1DHCtGzazro9v2Q","standard","2","13","LP","5.5010771219302","26.981","NaN","28.648","1.667","NaN","0","237",NA
"92","R_1DHCtGzazro9v2Q","standard","2","14","LP","3.49090909090909","29.655","NaN","31.26","1.605","NaN","0","237",NA
"93","R_1DHCtGzazro9v2Q","standard","2","15","LP","0.661783713916415","32.282","32.947","33.628","1.346","0.681","3","240",NA
"94","R_1DHCtGzazro9v2Q","standard","2","16","LP","8.51632916846187","34.635","NaN","35.617","0.982","NaN","0","240",NA
"95","R_1DHCtGzazro9v2Q","standard","2","17","LP","0.661783713916415","36.621","37.297","37.82","1.199","0.523","3","243",NA
"96","R_1DHCtGzazro9v2Q","standard","2","18","LP","0.661783713916415","38.821","39.502","39.817","0.996","0.315","3","246",NA
"97","R_1DHCtGzazro9v2Q","standard","2","19","LP","19.8235243429556","40.827","NaN","42.037","1.21","NaN","0","246",NA
"98","R_1DHCtGzazro9v2Q","standard","2","20","LP","19.8235243429556","43.057","NaN","44.16","1.103","NaN","0","246",NA
"99","R_1DHCtGzazro9v2Q","standard","2","21","LP","30","45.176","NaN","46.453","1.277","NaN","0","246",NA
"100","R_1DHCtGzazro9v2Q","standard","2","22","LP","2.15079707022835","47.468","NaN","49.315","1.847","NaN","0","246",NA
"101","R_1DHCtGzazro9v2Q","standard","2","23","LP","19.8235243429556","50.342","NaN","52.741","2.399","NaN","0","246",NA
"102","R_1DHCtGzazro9v2Q","standard","2","24","LP","19.8235243429556","53.754","NaN","55.483","1.729","NaN","0","246",NA
"103","R_1DHCtGzazro9v2Q","standard","2","25","LP","0.661783713916415","56.491","57.176","57.814","1.323","0.638","3","249",NA
"104","R_1DHCtGzazro9v2Q","standard","2","26","LP","8.51632916846187","58.817","NaN","60.803","1.986","NaN","0","249",NA
"105","R_1DHCtGzazro9v2Q","standard","2","27","LP","13.0392072382594","61.81","NaN","63.13","1.32","NaN","0","249",NA
"106","R_1DHCtGzazro9v2Q","standard","2","28","LP","5.5010771219302","64.154","NaN","65.573","1.419","NaN","0","249",NA
"107","R_1DHCtGzazro9v2Q","standard","2","29","LP","3.49090909090909","66.591","NaN","68.716","2.125","NaN","0","249",NA
"108","R_1DHCtGzazro9v2Q","standard","2","30","LP","3.49090909090909","69.719","NaN","72.898","3.179","NaN","0","249",NA
"109","R_1DHCtGzazro9v2Q","standard","2","31","LP","5.5010771219302","73.907","NaN","74.926","1.019","NaN","0","249",NA
"110","R_1DHCtGzazro9v2Q","standard","2","32","LP","5.5010771219302","75.931","NaN","78.437","2.506","NaN","0","249",NA
"111","R_1DHCtGzazro9v2Q","standard","2","33","LP","0.264713485566566","79.443","79.723","80.507","1.064","0.784","3","252",NA
"112","R_1DHCtGzazro9v2Q","standard","2","34","LP","30","81.509","NaN","81.972","0.463","NaN","0","252",NA
"113","R_1DHCtGzazro9v2Q","standard","2","35","LP","30","82.995","NaN","85.227","2.232","NaN","0","252",NA
"114","R_1DHCtGzazro9v2Q","standard","2","36","LP","30","86.235","NaN","88.269","2.034","NaN","0","252",NA
"115","R_1DHCtGzazro9v2Q","standard","2","37","LP","1.25738905644119","89.289","90.573","91.009","1.72","0.436","3","255",NA
"116","R_1DHCtGzazro9v2Q","standard","2","38","LP","0.661783713916415","92.022","92.69","93.324","1.302","0.634","3","258",NA
"117","R_1DHCtGzazro9v2Q","standard","2","39","LP","8.51632916846187","94.327","NaN","95.999","1.672","NaN","0","258",NA
"118","R_1DHCtGzazro9v2Q","standard","2","40","LP","0.264713485566566","97.005","97.289","98.248","1.243","0.959","3","261",NA
"119","R_1DHCtGzazro9v2Q","standard","2","41","LP","0.661783713916415","99.253","99.924","100.542","1.289","0.618","3","264",NA
"120","R_1DHCtGzazro9v2Q","standard","2","42","LP","3.49090909090909","101.552","NaN","102.196","0.644","NaN","0","264",NA
"121","R_1DHCtGzazro9v2Q","standard","2","43","LP","19.8235243429556","103.205","NaN","104.582","1.377","NaN","0","264",NA
"122","R_1DHCtGzazro9v2Q","standard","2","44","LP","30","105.586","NaN","106.315","0.729","NaN","0","264",NA
"123","R_1DHCtGzazro9v2Q","standard","2","45","LP","30","107.324","NaN","111.21","3.886","NaN","0","264",NA
"124","R_1DHCtGzazro9v2Q","standard","2","46","LP","3.49090909090909","112.221","115.715","116.046","3.825","0.331","3","267",NA
"125","R_1DHCtGzazro9v2Q","standard","2","47","LP","0.264713485566566","117.05","117.32","118.327","1.277","1.007","3","270",NA
"126","R_1DHCtGzazro9v2Q","standard","2","48","LP","2.15079707022835","119.341","NaN","120.527","1.186","NaN","0","270",NA
"127","R_1DHCtGzazro9v2Q","standard","2","49","LP","3.49090909090909","121.545","NaN","122.287","0.742","NaN","0","270",NA
"128","R_1DHCtGzazro9v2Q","standard","2","50","LP","2.15079707022835","123.32","NaN","124.98","1.66","NaN","0","270",NA
"129","R_1DHCtGzazro9v2Q","standard","2","51","LP","2.15079707022835","125.988","128.139","128.53","2.542","0.391","3","273",NA
"130","R_1DHCtGzazro9v2Q","standard","2","52","LP","5.5010771219302","129.538","NaN","131.532","1.994","NaN","0","273",NA
"131","R_1DHCtGzazro9v2Q","standard","2","53","LP","30","132.539","NaN","135.084","2.545","NaN","0","273",NA
"132","R_1DHCtGzazro9v2Q","standard","2","54","LP","8.51632916846187","136.094","NaN","138.87","2.776","NaN","0","273",NA
"133","R_1DHCtGzazro9v2Q","standard","2","55","LP","0.661783713916415","139.886","140.565","141.061","1.175","0.496","3","276",NA
"134","R_1DHCtGzazro9v2Q","standard","2","56","LP","1.25738905644119","142.071","143.33","143.821","1.75","0.491","3","279",NA
"135","R_1DHCtGzazro9v2Q","standard","2","57","LP","1.25738905644119","144.822","146.086","146.468","1.646","0.382","3","282",NA
"136","R_1DHCtGzazro9v2Q","standard","2","58","LP","30","147.486","NaN","148.374","0.888","NaN","0","282",NA
"137","R_1DHCtGzazro9v2Q","standard","2","59","LP","1.25738905644119","149.387","150.651","151.039","1.652","0.388","3","285",NA
"138","R_1DHCtGzazro9v2Q","standard","2","60","LP","19.8235243429556","152.047","NaN","155.094","3.047","NaN","0","285",NA
"139","R_1DHCtGzazro9v2Q","standard","2","61","LP","19.8235243429556","156.101","NaN","158.701","2.6","NaN","0","285",NA
"140","R_1DHCtGzazro9v2Q","standard","2","62","LP","3.49090909090909","159.717","163.217","163.413","3.696","0.196","3","288",NA
"141","R_1DHCtGzazro9v2Q","standard","2","63","LP","8.51632916846187","164.419","NaN","165.647","1.228","NaN","0","288",NA
"142","R_1DHCtGzazro9v2Q","standard","2","64","LP","3.49090909090909","166.663","NaN","170.031","3.368","NaN","0","288",NA
"143","R_1DHCtGzazro9v2Q","standard","2","65","LP","30","171.036","NaN","174.649","3.613","NaN","0","288",NA
"144","R_1DHCtGzazro9v2Q","standard","2","66","LP","1.25738905644119","175.655","NaN","176.517","0.862","NaN","0","288",NA
"145","R_1DHCtGzazro9v2Q","standard","2","67","LP","3.49090909090909","177.525","NaN","179.76","2.235","NaN","0","288",NA
"146","R_1DHCtGzazro9v2Q","standard","2","68","LP","3.49090909090909","180.769","184.286","184.663","3.894","0.377","3","291",NA
"147","R_1DHCtGzazro9v2Q","standard","2","69","LP","3.49090909090909","185.668","189.185","189.295","3.627","0.11","3","294",NA
"148","R_1DHCtGzazro9v2Q","standard","2","70","LP","3.49090909090909","190.301","NaN","193.452","3.151","NaN","0","294",NA
"149","R_1DHCtGzazro9v2Q","standard","2","71","LP","2.15079707022835","194.462","196.616","197.067","2.605","0.451","3","297",NA
"150","R_1DHCtGzazro9v2Q","standard","2","72","LP","19.8235243429556","198.083","NaN","202.032","3.949","NaN","0","297",NA
"151","R_1DHCtGzazro9v2Q","standard","2","73","LP","19.8235243429556","203.036","NaN","207.766","4.73","NaN","0","297",NA
"152","R_1DHCtGzazro9v2Q","standard","2","74","LP","0.661783713916415","208.782","209.451","210.019","1.237","0.568","3","300",NA
"153","R_1DHCtGzazro9v2Q","standard","2","75","LP","19.8235243429556","211.021","NaN","212.905","1.884","NaN","0","300",NA
"154","R_1DHCtGzazro9v2Q","standard","2","76","LP","2.15079707022835","213.923","216.084","216.388","2.465","0.304","3","303",NA
"155","R_1DHCtGzazro9v2Q","standard","2","77","LP","1.25738905644119","217.4","218.662","219.106","1.706","0.444","3","306",NA
"156","R_1DHCtGzazro9v2Q","standard","2","78","LP","1.25738905644119","220.115","221.383","221.729","1.614","0.346","3","309",NA
"157","R_1DHCtGzazro9v2Q","standard","2","79","LP","2.15079707022835","222.73","NaN","224.415","1.685","NaN","0","309",NA
"158","R_1DHCtGzazro9v2Q","standard","2","80","LP","8.51632916846187","225.417","NaN","229.604","4.187","NaN","0","309",NA
"159","R_1DHCtGzazro9v2Q","standard","2","81","LP","13.0392072382594","230.614","NaN","234.417","3.803","NaN","0","309",NA
"160","R_1DHCtGzazro9v2Q","standard","2","82","LP","30","235.419","NaN","240.297","4.878","NaN","0","309",NA
"161","R_1DHCtGzazro9v2Q","standard","2","83","LP","19.8235243429556","241.313","NaN","246.252","4.939","NaN","0","309",NA
"162","R_1DHCtGzazro9v2Q","standard","2","84","LP","13.0392072382594","247.262","NaN","256.329","9.067","NaN","0","309",NA
"163","R_1DHCtGzazro9v2Q","standard","2","85","LP","1.25738905644119","257.332","258.596","259.111","1.779","0.515","3","312",NA
"164","R_1DHCtGzazro9v2Q","standard","2","86","LP","19.8235243429556","260.12","NaN","266.229","6.109","NaN","0","312",NA
"165","R_1DHCtGzazro9v2Q","standard","2","87","LP","19.8235243429556","267.232","NaN","272.719","5.487","NaN","0","312",NA
"166","R_1DHCtGzazro9v2Q","standard","2","88","LP","2.15079707022835","273.726","275.894","276.527","2.801","0.633","3","315",NA
"167","R_1DHCtGzazro9v2Q","standard","2","89","LP","8.51632916846187","277.53","NaN","281.419","3.889","NaN","0","315",NA
"168","R_1DHCtGzazro9v2Q","standard","2","90","LP","8.51632916846187","282.421","NaN","288.37","5.949","NaN","0","315",NA
"169","R_1DHCtGzazro9v2Q","standard","2","91","LP","13.0392072382594","289.382","NaN","296.253","6.871","NaN","0","315",NA
"170","R_1DHCtGzazro9v2Q","standard","2","92","LP","5.5010771219302","297.263","302.778","303.185","5.922","0.407","3","318",NA
"171","R_1DHCtGzazro9v2Q","standard","2","93","LP","8.51632916846187","304.194","NaN","309.904","5.71","NaN","0","318",NA
"172","R_1DHCtGzazro9v2Q","standard","2","94","LP","0.264713485566566","310.91","311.178","311.909","0.999","0.731","3","321",NA
"173","R_1DHCtGzazro9v2Q","standard","2","95","LP","0.661783713916415","312.918","313.593","314.097","1.179","0.504","3","324",NA
"174","R_1DHCtGzazro9v2Q","standard","2","96","LP","8.51632916846187","315.108","NaN","320.07","4.962","NaN","0","324",NA
"175","R_1DHCtGzazro9v2Q","standard","2","97","LP","13.0392072382594","321.077","NaN","325.026","3.949","NaN","0","324",NA
"176","R_1DHCtGzazro9v2Q","standard","2","98","LP","3.49090909090909","326.028","329.523","329.95","3.922","0.427","3","327",NA
"177","R_1DHCtGzazro9v2Q","standard","2","99","LP","0.661783713916415","330.955","331.625","332.117","1.162","0.492","3","330",NA
"178","R_1DHCtGzazro9v2Q","standard","2","100","LP","2.15079707022835","333.118","335.289","335.64","2.522","0.351","3","333",NA
"179","R_1DHCtGzazro9v2Q","standard","2","101","LP","3.49090909090909","336.642","340.149","340.692","4.05","0.543","3","336",NA
"180","R_1DHCtGzazro9v2Q","standard","2","102","LP","2.15079707022835","341.705","NaN","343.145","1.44","NaN","0","336",NA
"181","R_1DHCtGzazro9v2Q","standard","2","103","LP","13.0392072382594","344.157","NaN","345.819","1.662","NaN","0","336",NA
"182","R_1DHCtGzazro9v2Q","standard","2","104","LP","2.15079707022835","346.823","348.991","349.4","2.577","0.409","3","339",NA
"183","R_1DHCtGzazro9v2Q","standard","2","105","LP","1.25738905644119","350.407","351.676","352.056","1.649","0.38","3","342",NA
"184","R_1DHCtGzazro9v2Q","standard","2","106","LP","2.15079707022835","353.076","NaN","355.114","2.038","NaN","0","342",NA
"185","R_1DHCtGzazro9v2Q","standard","2","107","LP","2.15079707022835","356.127","358.291","358.74","2.613","0.449","3","345",NA
"186","R_1DHCtGzazro9v2Q","standard","2","108","LP","0.661783713916415","359.754","360.423","360.832","1.078","0.409","3","348",NA
"187","R_1DHCtGzazro9v2Q","standard","2","109","LP","0.661783713916415","361.835","362.507","362.952","1.117","0.445","3","351",NA
"188","R_1DHCtGzazro9v2Q","standard","2","110","LP","1.25738905644119","363.975","365.234","365.706","1.731","0.472","3","354",NA
"189","R_1DHCtGzazro9v2Q","standard","2","111","LP","30","366.73","NaN","371.457","4.727","NaN","0","354",NA
"190","R_1DHCtGzazro9v2Q","standard","2","112","LP","5.5010771219302","372.475","NaN","375.976","3.501","NaN","0","354",NA
"191","R_1DHCtGzazro9v2Q","standard","2","113","LP","3.49090909090909","376.981","NaN","379.533","2.552","NaN","0","354",NA
"192","R_1DHCtGzazro9v2Q","standard","2","114","LP","0.264713485566566","380.542","380.81","381.517","0.975","0.707","3","357",NA
"193","R_1DHCtGzazro9v2Q","standard","2","115","LP","2.15079707022835","382.525","NaN","383.45","0.925","NaN","0","357",NA
"194","R_1DHCtGzazro9v2Q","standard","2","116","LP","0.661783713916415","384.474","385.148","385.562","1.088","0.414","3","360",NA
"195","R_1DHCtGzazro9v2Q","standard","2","117","LP","13.0392072382594","386.574","NaN","389.145","2.571","NaN","0","360",NA
"196","R_1DHCtGzazro9v2Q","standard","2","118","LP","5.5010771219302","390.158","NaN","391.39","1.232","NaN","0","360",NA
"197","R_1DHCtGzazro9v2Q","standard","2","119","LP","2.15079707022835","392.42","394.59","395.023","2.603","0.433","3","363",NA
"198","R_1DHCtGzazro9v2Q","standard","2","120","LP","13.0392072382594","396.024","NaN","398.705","2.681","NaN","0","363",NA
"199","R_1DHCtGzazro9v2Q","standard","2","121","LP","30","399.723","NaN","403.183","3.46","NaN","0","363",NA
"200","R_1DHCtGzazro9v2Q","standard","2","122","LP","3.49090909090909","404.19","407.683","407.975","3.785","0.292","3","366",NA
"201","R_1DHCtGzazro9v2Q","standard","2","123","LP","3.49090909090909","408.988","412.488","412.695","3.707","0.207","3","369",NA
"202","R_1DHCtGzazro9v2Q","standard","2","124","LP","1.25738905644119","413.703","414.972","415.612","1.909","0.64","3","372",NA
"203","R_1DHCtGzazro9v2Q","standard","2","125","LP","2.15079707022835","416.632","NaN","418.588","1.956","NaN","0","372",NA
"204","R_1DHCtGzazro9v2Q","standard","2","126","LP","0.661783713916415","419.602","420.272","420.833","1.231","0.561","3","375",NA
"205","R_1DHCtGzazro9v2Q","standard","2","127","LP","2.15079707022835","421.839","423.999","424.361","2.522","0.362","3","378",NA
"206","R_1DHCtGzazro9v2Q","standard","2","128","LP","8.51632916846187","425.364","NaN","428.334","2.97","NaN","0","378",NA
"207","R_1DHCtGzazro9v2Q","standard","2","129","LP","0.661783713916415","429.343","430.014","430.487","1.144","0.473","3","381",NA
"208","R_1DHCtGzazro9v2Q","standard","2","130","LP","2.15079707022835","431.518","NaN","432.435","0.917","NaN","0","381",NA
"209","R_1DHCtGzazro9v2Q","standard","2","131","LP","0.264713485566566","433.443","433.724","434.268","0.825","0.544","3","384",NA
"210","R_1DHCtGzazro9v2Q","standard","2","132","LP","1.25738905644119","435.286","436.547","436.996","1.71","0.449","3","387",NA
"211","R_1DHCtGzazro9v2Q","standard","2","133","LP","2.15079707022835","438.004","NaN","439.453","1.449","NaN","0","387",NA
"212","R_1DHCtGzazro9v2Q","standard","2","134","LP","30","440.471","NaN","443.071","2.6","NaN","0","387",NA
"213","R_1DHCtGzazro9v2Q","standard","2","135","LP","1.25738905644119","444.087","445.348","445.746","1.659","0.398","3","390",NA
"214","R_1DHCtGzazro9v2Q","standard","2","136","LP","0.264713485566566","446.765","447.048","447.887","1.122","0.839","3","393",NA
"215","R_1DHCtGzazro9v2Q","standard","2","137","LP","0.661783713916415","448.902","449.579","450.024","1.122","0.445","3","396",NA
"216","R_1DHCtGzazro9v2Q","standard","2","138","LP","13.0392072382594","451.032","NaN","453.054","2.022","NaN","0","396",NA
"217","R_1DHCtGzazro9v2Q","standard","2","139","LP","13.0392072382594","454.07","NaN","454.87","0.8","NaN","0","396",NA
"218","R_1DHCtGzazro9v2Q","standard","2","140","LP","1.25738905644119","455.887","457.147","457.223","1.336","0.076","3","399",NA
"219","R_1DHCtGzazro9v2Q","standard","2","141","LP","8.51632916846187","458.235","NaN","460.078","1.843","NaN","0","399",NA
"220","R_1DHCtGzazro9v2Q","standard","2","142","LP","0.264713485566566","461.095","461.364","461.868","0.773","0.504","3","402",NA
"221","R_1DHCtGzazro9v2Q","standard","2","143","LP","1.25738905644119","462.886","464.149","464.582","1.696","0.433","3","405",NA
"222","R_1DHCtGzazro9v2Q","standard","2","144","LP","19.8235243429556","465.587","NaN","467.334","1.747","NaN","0","405",NA
"223","R_1DHCtGzazro9v2Q","standard","2","145","LP","8.51632916846187","468.338","NaN","471.038","2.7","NaN","0","405",NA
"224","R_1DHCtGzazro9v2Q","standard","2","146","LP","2.15079707022835","472.049","474.207","474.713","2.664","0.506","3","408",NA
"225","R_1DHCtGzazro9v2Q","standard","2","147","LP","0.264713485566566","475.715","476.013","476.616","0.901","0.603","3","411",NA
"226","R_1DHCtGzazro9v2Q","standard","2","148","LP","8.51632916846187","477.621","NaN","479.942","2.321","NaN","0","411",NA
"227","R_1DHCtGzazro9v2Q","standard","2","149","LP","2.15079707022835","480.947","NaN","482.473","1.526","NaN","0","411",NA
"228","R_1DHCtGzazro9v2Q","standard","2","150","LP","0.661783713916415","483.502","484.186","484.731","1.229","0.545","3","414",NA
"229","R_1DHCtGzazro9v2Q","standard","2","151","LP","19.8235243429556","485.736","NaN","489.358","3.622","NaN","0","414",NA
"230","R_1DHCtGzazro9v2Q","standard","2","152","LP","3.49090909090909","490.385","NaN","491.722","1.337","NaN","0","414",NA
"231","R_1DHCtGzazro9v2Q","standard","2","153","LP","0.661783713916415","492.731","493.401","493.775","1.044","0.374","3","417",NA
"232","R_1DHCtGzazro9v2Q","standard","2","154","LP","2.15079707022835","494.785","NaN","496.073","1.288","NaN","0","417",NA
"233","R_1DHCtGzazro9v2Q","standard","2","155","LP","3.49090909090909","497.084","NaN","499.696","2.612","NaN","0","417",NA
"234","R_1DHCtGzazro9v2Q","standard","2","156","LP","13.0392072382594","500.699","NaN","506.553","5.854","NaN","0","417",NA
"235","R_1DHCtGzazro9v2Q","standard","2","157","LP","8.51632916846187","507.584","NaN","513.599","6.015","NaN","0","417",NA
"236","R_1DHCtGzazro9v2Q","standard","2","158","LP","2.15079707022835","514.615","516.784","517.233","2.618","0.449","3","420",NA
"237","R_1DHCtGzazro9v2Q","standard","2","159","LP","1.25738905644119","518.239","519.512","519.971","1.732","0.459","3","423",NA
"238","R_1DHCtGzazro9v2Q","standard","2","160","LP","19.8235243429556","520.983","NaN","524.255","3.272","NaN","0","423",NA
"239","R_1DHCtGzazro9v2Q","standard","2","161","LP","0.661783713916415","525.283","525.951","526.403","1.12","0.452","3","426",NA
"240","R_1DHCtGzazro9v2Q","standard","2","162","LP","30","527.407","NaN","531.857","4.45","NaN","0","426",NA
"241","R_1DHCtGzazro9v2Q","standard","2","163","LP","13.0392072382594","532.86","NaN","537.891","5.031","NaN","0","426",NA
"242","R_1DHCtGzazro9v2Q","standard","2","164","LP","1.25738905644119","538.899","540.183","540.681","1.782","0.498","3","429",NA
"243","R_1DHCtGzazro9v2Q","standard","2","165","LP","0.264713485566566","541.698","541.982","542.529","0.831","0.547","3","432",NA
"244","R_1DHCtGzazro9v2Q","standard","2","166","LP","5.5010771219302","543.534","NaN","546.531","2.997","NaN","0","432",NA
"245","R_1DHCtGzazro9v2Q","standard","2","167","LP","13.0392072382594","547.533","NaN","550.759","3.226","NaN","0","432",NA
"246","R_1DHCtGzazro9v2Q","standard","2","168","LP","2.15079707022835","551.781","553.942","554.566","2.785","0.624","3","435",NA
"247","R_1DHCtGzazro9v2Q","standard","2","169","LP","8.51632916846187","555.584","NaN","559.075","3.491","NaN","0","435",NA
"248","R_1DHCtGzazro9v2Q","standard","2","170","LP","3.49090909090909","560.093","563.6","563.977","3.884","0.377","3","438",NA
"249","R_1DHCtGzazro9v2Q","standard","2","171","LP","5.5010771219302","564.98","570.496","570.899","5.919","0.403","3","441",NA
"250","R_1DHCtGzazro9v2Q","standard","2","172","LP","8.51632916846187","571.916","NaN","575.502","3.586","NaN","0","441",NA
"251","R_1DHCtGzazro9v2Q","standard","2","173","LP","3.49090909090909","576.527","580.027","580.453","3.926","0.426","3","444",NA
"252","R_1DHCtGzazro9v2Q","standard","2","174","LP","1.25738905644119","581.459","582.722","583.208","1.749","0.486","3","447",NA
"253","R_1DHCtGzazro9v2Q","standard","2","175","LP","0.661783713916415","584.211","584.881",NA,"1.684",NA,"0","447",NA
"254","R_1DHCtGzazro9v2Q","standard","2","176","LP","2.15079707022835","586.896","589.058","589.515","2.619","0.457","3","450",NA
"255","R_1DHCtGzazro9v2Q","standard","2","177","LP","13.0392072382594","590.526","NaN","593.126","2.6","NaN","0","450",NA
"256","R_1DHCtGzazro9v2Q","standard","2","178","LP","5.5010771219302","594.13","NaN","598.355","4.225","NaN","0","450",NA
