"","subject_id","condition","n_block","n_trialIdx","f_timing_condition","n_scheduled_delay","n_trial_start_time","n_rewarded_time_fin","n_sell_time_fin","n_time_waited_fin","RT_fin","n_trial_earnings_fin","n_total_earnings_fin","keypress_times"
"1","R_1E1bw61g9qcBQiR","standard","1","1","LP","0.661783713916415","0.002","0.697","NA","1.701","NA","0","0",""
"2","R_1E1bw61g9qcBQiR","standard","1","2","LP","3.49090909090909","2.706","6.202","6.928","4.222","0.726","3","3","48"
"3","R_1E1bw61g9qcBQiR","standard","1","3","LP","30","7.929","37.93","38.606","30.677","0.676","3","3","18771"
"4","R_1E1bw61g9qcBQiR","standard","1","4","LP","0.661783713916415","39.617","40.284","40.948","1.331","0.664","3","6",""
"5","R_1E1bw61g9qcBQiR","standard","1","5","LP","3.49090909090909","41.953","45.449","46.103","4.15","0.654","3","9",""
"6","R_1E1bw61g9qcBQiR","standard","1","6","LP","2.15079707022835","47.109","49.265","49.96","2.851","0.695","3","12",""
"7","R_1E1bw61g9qcBQiR","standard","1","7","LP","30","50.962","80.982","81.697","30.735","0.715","3","15",""
"8","R_1E1bw61g9qcBQiR","standard","1","8","LP","13.0392072382594","82.714","95.764","96.398","13.684","0.634","3","18",""
"9","R_1E1bw61g9qcBQiR","standard","1","9","LP","0.264713485566566","97.414","97.682","NA","1.284","NA","0","18",""
"10","R_1E1bw61g9qcBQiR","standard","1","10","LP","30","99.705","129.731","130.42","30.715","0.689","3","21",""
"11","R_1E1bw61g9qcBQiR","standard","1","11","LP","0.264713485566566","131.447","131.713","NA","1.269","NA","0","21",""
"12","R_1E1bw61g9qcBQiR","standard","1","12","LP","1.25738905644119","133.721","134.995","135.695","1.974","0.7","3","24",""
"13","R_1E1bw61g9qcBQiR","standard","1","13","LP","8.51632916846187","136.712","145.23","NA","9.523","NA","0","24",""
"14","R_1E1bw61g9qcBQiR","standard","1","14","LP","3.49090909090909","147.257","151.137","NA","4.882","NA","0","24",""
"15","R_1E1bw61g9qcBQiR","standard","1","15","LP","19.8235243429556","154.137","173.966","174.644","20.507","0.678","3","27",""
"16","R_1E1bw61g9qcBQiR","standard","1","16","LP","0.661783713916415","175.662","176.328","NA","1.667","NA","0","27",""
"17","R_1E1bw61g9qcBQiR","standard","1","17","LP","3.49090909090909","178.333","181.825","182.468","4.135","0.643","3","30",""
"18","R_1E1bw61g9qcBQiR","standard","1","18","LP","5.5010771219302","183.476","189.136","NA","6.661","NA","0","30",""
"19","R_1E1bw61g9qcBQiR","standard","1","19","LP","13.0392072382594","191.145","204.192","204.86","13.715","0.668","3","33",""
"20","R_1E1bw61g9qcBQiR","standard","1","20","LP","8.51632916846187","205.897","215.138","NA","11.242","NA","0","33",""
"21","R_1E1bw61g9qcBQiR","standard","1","21","LP","0.264713485566566","218.142","219.138","NA","1.998","NA","0","33",""
"22","R_1E1bw61g9qcBQiR","standard","1","22","LP","19.8235243429556","222.259","242.139","NA","20.895","NA","0","33",""
"23","R_1E1bw61g9qcBQiR","standard","1","23","LP","0.264713485566566","245.158","246.231","NA","2.981","NA","0","33",""
"24","R_1E1bw61g9qcBQiR","standard","1","24","LP","1.25738905644119","249.139","251.147","NA","4.008","NA","0","33",""
"25","R_1E1bw61g9qcBQiR","standard","1","25","LP","30","255.139","285.139","NA","31.016","NA","0","33",""
"26","R_1E1bw61g9qcBQiR","standard","1","26","LP","3.49090909090909","288.138","291.78","NA","4.647","NA","0","33",""
"27","R_1E1bw61g9qcBQiR","standard","1","27","LP","8.51632916846187","293.794","303.137","NA","10.938","NA","0","30","72"
"28","R_1E1bw61g9qcBQiR","standard","1","28","LP","1.25738905644119","305.16","306.42","306.514","1.354","0.094","3","33",""
"29","R_1E1bw61g9qcBQiR","standard","1","29","LP","0.264713485566566","307.52","307.793","308.749","1.229","0.956","3","36",""
"30","R_1E1bw61g9qcBQiR","standard","1","30","LP","0.661783713916415","309.753","310.424","311.227","1.474","0.803","3","39",""
"31","R_1E1bw61g9qcBQiR","standard","1","31","LP","30","312.232","342.24","342.985","30.753","0.745","3","42",""
"32","R_1E1bw61g9qcBQiR","standard","1","32","LP","13.0392072382594","343.996","357.04","NA","14.044","NA","0","42",""
"33","R_1E1bw61g9qcBQiR","standard","1","33","LP","2.15079707022835","359.04","361.201","NA","3.168","NA","0","42",""
"34","R_1E1bw61g9qcBQiR","standard","1","34","LP","3.49090909090909","363.219","367.136","NA","4.92","NA","0","42",""
"35","R_1E1bw61g9qcBQiR","standard","1","35","LP","1.25738905644119","369.139","371.143","NA","3.997","NA","0","42",""
"36","R_1E1bw61g9qcBQiR","standard","1","36","LP","0.264713485566566","374.149","375.138","NA","1.99","NA","0","42",""
"37","R_1E1bw61g9qcBQiR","standard","1","37","LP","13.0392072382594","377.145","391.154","NA","16.054","NA","0","42",""
"38","R_1E1bw61g9qcBQiR","standard","1","38","LP","0.264713485566566","395.159","395.423","396.186","1.027","0.763","3","45",""
"39","R_1E1bw61g9qcBQiR","standard","1","39","LP","5.5010771219302","397.194","402.697","403.38","6.186","0.683","3","48",""
"40","R_1E1bw61g9qcBQiR","standard","1","40","LP","30","404.385","434.386","NA","31.007","NA","0","45","12771"
"41","R_1E1bw61g9qcBQiR","standard","1","41","LP","3.49090909090909","436.402","439.915","NA","4.518","NA","0","45",""
"42","R_1E1bw61g9qcBQiR","standard","1","42","LP","8.51632916846187","441.922","450.442","NA","9.528","NA","0","45",""
"43","R_1E1bw61g9qcBQiR","standard","1","43","LP","30","452.458","482.467","NA","31.027","NA","0","45",""
"44","R_1E1bw61g9qcBQiR","standard","1","44","LP","13.0392072382594","484.501","497.545","NA","14.075","NA","0","45",""
"45","R_1E1bw61g9qcBQiR","standard","1","45","LP","0.661783713916415","499.577","500.242","501.2","1.623","0.958","3","45","320"
"46","R_1E1bw61g9qcBQiR","standard","1","46","LP","19.8235243429556","502.211","522.137","NA","21.128","NA","0","42","11434"
"47","R_1E1bw61g9qcBQiR","standard","1","47","LP","2.15079707022835","524.345","527.137","NA","3.8","NA","0","42",""
"48","R_1E1bw61g9qcBQiR","standard","1","48","LP","19.8235243429556","530.138","550.145","NA","22.001","NA","0","42",""
"49","R_1E1bw61g9qcBQiR","standard","1","49","LP","8.51632916846187","553.139","562.143","NA","10.997","NA","0","42",""
"50","R_1E1bw61g9qcBQiR","standard","1","50","LP","19.8235243429556","565.139","585.136","NA","20.998","NA","0","42",""
"51","R_1E1bw61g9qcBQiR","standard","1","51","LP","0.264713485566566","587.139","588.137","NA","2.003","NA","0","42",""
"52","R_1E1bw61g9qcBQiR","standard","1","52","LP","0.264713485566566","590.151","591.145","NA","2.985","NA","0","42",""
"53","R_1E1bw61g9qcBQiR","standard","1","53","LP","3.49090909090909","594.139","598.184","NA","6.008","NA","0","42",""
"54","R_1E1bw61g9qcBQiR","standard","1","54","LP","1.25738905644119","602.136","604.136","NA","3.001","NA","0","42",""
"55","R_1E1bw61g9qcBQiR","standard","1","55","LP","5.5010771219302","606.156","612.14","NA","6.992","NA","0","42",""
"56","R_1E1bw61g9qcBQiR","standard","1","56","LP","3.49090909090909","615.136","618.888","NA","4.752","NA","0","42",""
"57","R_1E1bw61g9qcBQiR","standard","1","57","LP","19.8235243429556","620.888","640.714","641.183","20.295","0.469","3","45",""
"58","R_1E1bw61g9qcBQiR","standard","1","58","LP","0.661783713916415","642.186","642.85","NA","1.964","NA","0","45",""
"59","R_1E1bw61g9qcBQiR","standard","1","59","LP","0.264713485566566","646.137","647.141","NA","2.365","NA","0","45",""
"60","R_1E1bw61g9qcBQiR","standard","1","60","LP","13.0392072382594","649.506","662.554","NA","14.071","NA","0","45",""
"61","R_1E1bw61g9qcBQiR","standard","1","61","LP","30","664.577","694.589","NA","31.03","NA","0","45",""
"62","R_1E1bw61g9qcBQiR","standard","1","62","LP","3.49090909090909","696.62","700.137","NA","4.518","NA","0","45",""
"63","R_1E1bw61g9qcBQiR","standard","1","63","LP","30","702.144","733.138","NA","32.992","NA","0","42","8599"
"64","R_1E1bw61g9qcBQiR","standard","1","64","LP","0.264713485566566","736.138","737.138","NA","2.008","NA","0","42",""
"65","R_1E1bw61g9qcBQiR","standard","1","65","LP","3.49090909090909","740.136","744.138","NA","5.002","NA","0","42",""
"66","R_1E1bw61g9qcBQiR","standard","1","66","LP","2.15079707022835","746.153","749.153","NA","4.988","NA","0","42",""
"67","R_1E1bw61g9qcBQiR","standard","1","67","LP","3.49090909090909","752.143","756.137","NA","5.009","NA","0","42",""
"68","R_1E1bw61g9qcBQiR","standard","1","68","LP","19.8235243429556","759.232","779.136","NA","20.922","NA","0","42",""
"69","R_1E1bw61g9qcBQiR","standard","1","69","LP","13.0392072382594","782.137","796.139","NA","15.024","NA","0","42",""
"70","R_1E1bw61g9qcBQiR","standard","1","70","LP","5.5010771219302","799.143","804.649","NA","7.019","NA","0","42",""
"71","R_1E1bw61g9qcBQiR","standard","1","71","LP","8.51632916846187","807.164","815.703","NA","9.558","NA","0","42",""
"72","R_1E1bw61g9qcBQiR","standard","1","72","LP","8.51632916846187","817.729","826.25","NA","9.541","NA","0","42",""
"73","R_1E1bw61g9qcBQiR","standard","1","73","LP","3.49090909090909","828.273","831.77","NA","4.512","NA","0","42",""
"74","R_1E1bw61g9qcBQiR","standard","1","74","LP","13.0392072382594","833.785","846.826","NA","14.05","NA","0","42",""
"75","R_1E1bw61g9qcBQiR","standard","1","75","LP","3.49090909090909","848.836","852.329","NA","4.494","NA","0","42",""
"76","R_1E1bw61g9qcBQiR","standard","1","76","LP","8.51632916846187","854.338","862.868","NA","9.537","NA","0","42",""
"77","R_1E1bw61g9qcBQiR","standard","1","77","LP","30","864.881","894.89","NA","31.022","NA","0","42",""
"78","R_1E1bw61g9qcBQiR","standard","1","78","LP","0.661783713916415","896.915","897.598","NA","1.686","NA","0","42",""
"79","R_1E1bw61g9qcBQiR","standard","2","1","LP","0.264713485566566","0","0.271",NA,"1.298",NA,"0","42",NA
"80","R_1E1bw61g9qcBQiR","standard","2","2","LP","3.49090909090909","2.342","5.855","6.525","4.183","0.67","3","45",NA
"81","R_1E1bw61g9qcBQiR","standard","2","3","LP","0.264713485566566","7.527","7.799","8.494","0.967","0.695","3","48",NA
"82","R_1E1bw61g9qcBQiR","standard","2","4","LP","0.661783713916415","9.509","10.178","10.968","1.459","0.79","3","51",NA
"83","R_1E1bw61g9qcBQiR","standard","2","5","LP","2.15079707022835","11.976","14.135",NA,"3.353",NA,"0","51",NA
"84","R_1E1bw61g9qcBQiR","standard","2","6","LP","8.51632916846187","16.335","24.854","25.478","9.143","0.624","3","54",NA
"85","R_1E1bw61g9qcBQiR","standard","2","7","LP","19.8235243429556","26.494","NaN","37.272","10.778","NaN","0","54",NA
"86","R_1E1bw61g9qcBQiR","standard","2","8","LP","0.264713485566566","38.277","38.542","39.309","1.032","0.767","3","57",NA
"87","R_1E1bw61g9qcBQiR","standard","2","9","LP","0.264713485566566","40.31","40.591","41.247","0.937","0.656","3","60",NA
"88","R_1E1bw61g9qcBQiR","standard","2","10","LP","13.0392072382594","42.254","NaN","54.36","12.106","NaN","0","60",NA
"89","R_1E1bw61g9qcBQiR","standard","2","11","LP","8.51632916846187","55.374","63.893","64.597","9.223","0.704","3","63",NA
"90","R_1E1bw61g9qcBQiR","standard","2","12","LP","2.15079707022835","65.597","67.759","68.422","2.825","0.663","3","66",NA
"91","R_1E1bw61g9qcBQiR","standard","2","13","LP","13.0392072382594","69.427","82.632",NA,"15.196",NA,"0","66",NA
"92","R_1E1bw61g9qcBQiR","standard","2","14","LP","5.5010771219302","85.637","91.622",NA,"6.997",NA,"0","66",NA
"93","R_1E1bw61g9qcBQiR","standard","2","15","LP","1.25738905644119","94.622","96.622",NA,"3.004",NA,"0","66",NA
"94","R_1E1bw61g9qcBQiR","standard","2","16","LP","2.15079707022835","99.623","102.636",NA,"4.028",NA,"0","66",NA
"95","R_1E1bw61g9qcBQiR","standard","2","17","LP","19.8235243429556","105.625","125.455","126.254","20.629","0.799","3","69",NA
"96","R_1E1bw61g9qcBQiR","standard","2","18","LP","2.15079707022835","127.254","129.64",NA,"3.393",NA,"0","69",NA
"97","R_1E1bw61g9qcBQiR","standard","2","19","LP","0.264713485566566","131.654","131.919","132.663","1.009","0.744","3","72",NA
"98","R_1E1bw61g9qcBQiR","standard","2","20","LP","0.264713485566566","133.67","133.934","134.61","0.94","0.676","3","75",NA
"99","R_1E1bw61g9qcBQiR","standard","2","21","LP","8.51632916846187","135.614","144.135","144.889","9.275","0.754","3","78",NA
"100","R_1E1bw61g9qcBQiR","standard","2","22","LP","8.51632916846187","145.894","154.626",NA,"10.733",NA,"0","78",NA
"101","R_1E1bw61g9qcBQiR","standard","2","23","LP","5.5010771219302","158.627","164.135","164.828","6.201","0.693","3","81",NA
"102","R_1E1bw61g9qcBQiR","standard","2","24","LP","1.25738905644119","165.828","167.088","168.004","2.176","0.916","3","84",NA
"103","R_1E1bw61g9qcBQiR","standard","2","25","LP","2.15079707022835","169.009","171.166",NA,"3.614",NA,"0","84",NA
"104","R_1E1bw61g9qcBQiR","standard","2","26","LP","0.661783713916415","173.649","174.622",NA,"1.974",NA,"0","84",NA
"105","R_1E1bw61g9qcBQiR","standard","2","27","LP","2.15079707022835","176.623","179.64",NA,"4.023",NA,"0","84",NA
"106","R_1E1bw61g9qcBQiR","standard","2","28","LP","0.264713485566566","181.698","181.972",NA,"1.288",NA,"0","84",NA
"107","R_1E1bw61g9qcBQiR","standard","2","29","LP","1.25738905644119","183.991","185.255","186.031","2.04","0.776","3","87",NA
"108","R_1E1bw61g9qcBQiR","standard","2","30","LP","0.264713485566566","187.039","187.303","188.024","0.985","0.721","3","90",NA
"109","R_1E1bw61g9qcBQiR","standard","2","31","LP","5.5010771219302","189.031","194.535","195.283","6.252","0.748","3","93",NA
"110","R_1E1bw61g9qcBQiR","standard","2","32","LP","1.25738905644119","196.287","197.551",NA,"2.271",NA,"0","93",NA
"111","R_1E1bw61g9qcBQiR","standard","2","33","LP","2.15079707022835","199.559","201.711","202.669","3.11","0.958","3","96",NA
"112","R_1E1bw61g9qcBQiR","standard","2","34","LP","8.51632916846187","203.682","212.205","213.056","9.374","0.851","3","99",NA
"113","R_1E1bw61g9qcBQiR","standard","2","35","LP","3.49090909090909","214.069","217.566",NA,"4.497",NA,"0","99",NA
"114","R_1E1bw61g9qcBQiR","standard","2","36","LP","13.0392072382594","219.565","232.618","233.221","13.656","0.603","3","102",NA
"115","R_1E1bw61g9qcBQiR","standard","2","37","LP","5.5010771219302","234.221","239.726","240.484","6.263","0.758","3","105",NA
"116","R_1E1bw61g9qcBQiR","standard","2","38","LP","2.15079707022835","241.501","244.622",NA,"4.613",NA,"0","105",NA
"117","R_1E1bw61g9qcBQiR","standard","2","39","LP","2.15079707022835","247.627","249.973","250.891","3.264","0.918","3","108",NA
"118","R_1E1bw61g9qcBQiR","standard","2","40","LP","13.0392072382594","251.894","264.934","265.381","13.487","0.447","3","111",NA
"119","R_1E1bw61g9qcBQiR","standard","2","41","LP","8.51632916846187","266.398","274.918","275.696","9.298","0.778","3","114",NA
"120","R_1E1bw61g9qcBQiR","standard","2","42","LP","1.25738905644119","276.713","277.973","278.868","2.155","0.895","3","117",NA
"121","R_1E1bw61g9qcBQiR","standard","2","43","LP","30","279.9","NaN","300.169","20.269","NaN","0","117",NA
"122","R_1E1bw61g9qcBQiR","standard","2","44","LP","30","301.198","NaN","328.599","27.401","NaN","0","117",NA
"123","R_1E1bw61g9qcBQiR","standard","2","45","LP","13.0392072382594","329.608","342.654",NA,"14.347",NA,"0","117",NA
"124","R_1E1bw61g9qcBQiR","standard","2","46","LP","0.264713485566566","344.958","345.23","345.961","1.003","0.731","3","120",NA
"125","R_1E1bw61g9qcBQiR","standard","2","47","LP","5.5010771219302","346.966","352.622",NA,"6.656",NA,"0","120",NA
"126","R_1E1bw61g9qcBQiR","standard","2","48","LP","1.25738905644119","354.63","355.896","356.694","2.064","0.798","3","123",NA
"127","R_1E1bw61g9qcBQiR","standard","2","49","LP","0.264713485566566","357.712","357.982","358.733","1.021","0.751","3","126",NA
"128","R_1E1bw61g9qcBQiR","standard","2","50","LP","13.0392072382594","359.734","372.778",NA,"14.047",NA,"0","126",NA
"129","R_1E1bw61g9qcBQiR","standard","2","51","LP","13.0392072382594","374.781","387.821","388.535","13.754","0.714","3","129",NA
"130","R_1E1bw61g9qcBQiR","standard","2","52","LP","1.25738905644119","389.541","390.806","391.62","2.079","0.814","3","132",NA
"131","R_1E1bw61g9qcBQiR","standard","2","53","LP","13.0392072382594","392.621","405.663","406.291","13.67","0.628","3","135",NA
"132","R_1E1bw61g9qcBQiR","standard","2","54","LP","8.51632916846187","407.294","NaN","414.992","7.698","NaN","0","135",NA
"133","R_1E1bw61g9qcBQiR","standard","2","55","LP","8.51632916846187","416.009","424.622","425.546","9.537","0.924","3","138",NA
"134","R_1E1bw61g9qcBQiR","standard","2","56","LP","1.25738905644119","426.551","427.81","428.554","2.003","0.744","3","141",NA
"135","R_1E1bw61g9qcBQiR","standard","2","57","LP","5.5010771219302","429.559","435.062","435.771","6.212","0.709","3","144",NA
"136","R_1E1bw61g9qcBQiR","standard","2","58","LP","1.25738905644119","436.787","438.047","438.945","2.158","0.898","3","147",NA
"137","R_1E1bw61g9qcBQiR","standard","2","59","LP","5.5010771219302","439.96","445.463","446.262","6.302","0.799","3","150",NA
"138","R_1E1bw61g9qcBQiR","standard","2","60","LP","13.0392072382594","447.263","460.639",NA,"15.359",NA,"0","150",NA
"139","R_1E1bw61g9qcBQiR","standard","2","61","LP","5.5010771219302","463.623","469.622",NA,"6.999",NA,"0","150",NA
"140","R_1E1bw61g9qcBQiR","standard","2","62","LP","2.15079707022835","471.622","473.775","474.585","2.963","0.81","3","153",NA
"141","R_1E1bw61g9qcBQiR","standard","2","63","LP","30","475.59","505.592",NA,"31.017",NA,"0","153",NA
"142","R_1E1bw61g9qcBQiR","standard","2","64","LP","19.8235243429556","507.624","527.454",NA,"20.849",NA,"0","153",NA
"143","R_1E1bw61g9qcBQiR","standard","2","65","LP","13.0392072382594","529.49","542.632","543.395","13.905","0.763","3","156",NA
"144","R_1E1bw61g9qcBQiR","standard","2","66","LP","2.15079707022835","544.404","546.558",NA,"3.188",NA,"0","156",NA
"145","R_1E1bw61g9qcBQiR","standard","2","67","LP","0.661783713916415","548.607","549.288","549.976","1.369","0.688","3","159",NA
"146","R_1E1bw61g9qcBQiR","standard","2","68","LP","2.15079707022835","550.982","553.137","553.872","2.89","0.735","3","162",NA
"147","R_1E1bw61g9qcBQiR","standard","2","69","LP","19.8235243429556","554.888","574.718","575.368","20.48","0.65","3","165",NA
"148","R_1E1bw61g9qcBQiR","standard","2","70","LP","0.661783713916415","576.388","577.054",NA,"1.673",NA,"0","165",NA
