"","subject_id","condition","n_block","n_trialIdx","f_timing_condition","n_scheduled_delay","n_trial_start_time","n_rewarded_time_fin","n_sell_time_fin","n_time_waited_fin","RT_fin","n_trial_earnings_fin","n_total_earnings_fin","keypress_times"
"1","R_1g0itbPKCZnAAfr","standard","1","1","LP","8.51632916846187","0.001","8.522","8.843","8.842","0.321","3","3",""
"2","R_1g0itbPKCZnAAfr","standard","1","2","LP","1.25738905644119","9.845","11.104","11.519","1.674","0.415","3","6",""
"3","R_1g0itbPKCZnAAfr","standard","1","3","LP","2.15079707022835","12.531","14.688","15.092","2.561","0.404","3","9",""
"4","R_1g0itbPKCZnAAfr","standard","1","4","LP","3.49090909090909","16.112","19.62","19.976","3.864","0.356","3","12",""
"5","R_1g0itbPKCZnAAfr","standard","1","5","LP","0.661783713916415","20.987","21.655","22.085","1.098","0.43","3","15",""
"6","R_1g0itbPKCZnAAfr","standard","1","6","LP","13.0392072382594","23.095","36.151","36.449","13.354","0.298","3","18",""
"7","R_1g0itbPKCZnAAfr","standard","1","7","LP","5.5010771219302","37.452","42.956","43.342","5.89","0.386","3","21",""
"8","R_1g0itbPKCZnAAfr","standard","1","8","LP","30","44.348","74.369","74.697","30.349","0.328","3","21","26045"
"9","R_1g0itbPKCZnAAfr","standard","1","9","LP","0.264713485566566","75.703","75.985","76.711","1.008","0.726","3","24",""
"10","R_1g0itbPKCZnAAfr","standard","1","10","LP","1.25738905644119","77.721","78.999","79.299","1.578","0.3","3","27",""
"11","R_1g0itbPKCZnAAfr","standard","1","11","LP","0.661783713916415","80.307","80.983","81.329","1.022","0.346","3","30",""
"12","R_1g0itbPKCZnAAfr","standard","1","12","LP","5.5010771219302","82.335","87.845","88.205","5.87","0.36","3","33",""
"13","R_1g0itbPKCZnAAfr","standard","1","13","LP","0.264713485566566","89.213","89.496","89.89","0.677","0.394","3","36",""
"14","R_1g0itbPKCZnAAfr","standard","1","14","LP","0.264713485566566","90.903","91.172","91.513","0.61","0.341","3","39",""
"15","R_1g0itbPKCZnAAfr","standard","1","15","LP","3.49090909090909","92.524","96.026","96.375","3.851","0.349","3","42",""
"16","R_1g0itbPKCZnAAfr","standard","1","16","LP","19.8235243429556","97.389","117.223","117.557","20.168","0.334","3","45",""
"17","R_1g0itbPKCZnAAfr","standard","1","17","LP","0.661783713916415","118.573","119.244","119.531","0.958","0.287","3","48",""
"18","R_1g0itbPKCZnAAfr","standard","1","18","LP","13.0392072382594","120.54","133.594","133.976","13.436","0.382","3","51",""
"19","R_1g0itbPKCZnAAfr","standard","1","19","LP","2.15079707022835","134.983","137.134","137.567","2.584","0.433","3","54",""
"20","R_1g0itbPKCZnAAfr","standard","1","20","LP","13.0392072382594","138.582","151.627","151.976","13.394","0.349","3","57",""
"21","R_1g0itbPKCZnAAfr","standard","1","21","LP","8.51632916846187","152.999","161.531","161.871","8.872","0.34","3","60",""
"22","R_1g0itbPKCZnAAfr","standard","1","22","LP","19.8235243429556","162.877","182.712","183.187","20.31","0.475","3","63",""
"23","R_1g0itbPKCZnAAfr","standard","1","23","LP","2.15079707022835","184.198","186.356","186.757","2.559","0.401","3","66",""
"24","R_1g0itbPKCZnAAfr","standard","1","24","LP","3.49090909090909","187.764","191.256","191.77","4.006","0.514","3","69",""
"25","R_1g0itbPKCZnAAfr","standard","1","25","LP","30","192.788","222.808","223.154","30.366","0.346","3","72",""
"26","R_1g0itbPKCZnAAfr","standard","1","26","LP","0.264713485566566","224.156","224.423","224.797","0.641","0.374","3","75",""
"27","R_1g0itbPKCZnAAfr","standard","1","27","LP","0.661783713916415","225.807","226.476","226.83","1.023","0.354","3","78",""
"28","R_1g0itbPKCZnAAfr","standard","1","28","LP","8.51632916846187","227.841","236.363","236.734","8.893","0.371","3","81",""
"29","R_1g0itbPKCZnAAfr","standard","1","29","LP","30","237.743","267.751","268.039","30.296","0.288","3","84",""
"30","R_1g0itbPKCZnAAfr","standard","1","30","LP","0.264713485566566","269.048","269.313","269.625","0.577","0.312","3","87",""
"31","R_1g0itbPKCZnAAfr","standard","1","31","LP","3.49090909090909","270.627","274.124","274.549","3.922","0.425","3","90",""
"32","R_1g0itbPKCZnAAfr","standard","1","32","LP","0.264713485566566","275.562","275.83","276.659","1.097","0.829","3","93",""
"33","R_1g0itbPKCZnAAfr","standard","1","33","LP","1.25738905644119","277.665","278.923","279.293","1.628","0.37","3","96",""
"34","R_1g0itbPKCZnAAfr","standard","1","34","LP","1.25738905644119","280.304","281.581","281.958","1.654","0.377","3","99",""
"35","R_1g0itbPKCZnAAfr","standard","1","35","LP","1.25738905644119","282.964","284.222","284.576","1.612","0.354","3","102",""
"36","R_1g0itbPKCZnAAfr","standard","1","36","LP","3.49090909090909","285.588","289.098","289.431","3.843","0.333","3","105",""
"37","R_1g0itbPKCZnAAfr","standard","1","37","LP","0.264713485566566","290.441","290.722","291.2","0.759","0.478","3","108",""
"38","R_1g0itbPKCZnAAfr","standard","1","38","LP","8.51632916846187","292.206","300.735","301.041","8.835","0.306","3","111",""
"39","R_1g0itbPKCZnAAfr","standard","1","39","LP","1.25738905644119","302.042","303.32","303.658","1.616","0.338","3","114",""
"40","R_1g0itbPKCZnAAfr","standard","1","40","LP","0.661783713916415","304.66","305.335","305.648","0.988","0.313","3","117",""
"41","R_1g0itbPKCZnAAfr","standard","1","41","LP","13.0392072382594","306.652","319.698","320.29","13.638","0.592","3","120",""
"42","R_1g0itbPKCZnAAfr","standard","1","42","LP","5.5010771219302","321.295","326.825","327.16","5.865","0.335","3","123",""
"43","R_1g0itbPKCZnAAfr","standard","1","43","LP","3.49090909090909","328.176","331.675","332.054","3.878","0.379","3","126",""
"44","R_1g0itbPKCZnAAfr","standard","1","44","LP","30","333.06","363.065","363.435","30.375","0.37","3","129",""
"45","R_1g0itbPKCZnAAfr","standard","1","45","LP","0.264713485566566","364.439","364.719","365.327","0.888","0.608","3","132",""
"46","R_1g0itbPKCZnAAfr","standard","1","46","LP","5.5010771219302","366.334","371.849","372.38","6.046","0.531","3","135",""
"47","R_1g0itbPKCZnAAfr","standard","1","47","LP","1.25738905644119","373.391","374.656","375.276","1.885","0.62","3","138",""
"48","R_1g0itbPKCZnAAfr","standard","1","48","LP","13.0392072382594","376.292","389.335","NA","14.049","NA","0","138",""
"49","R_1g0itbPKCZnAAfr","standard","1","49","LP","8.51632916846187","391.344","399.869","400.218","8.874","0.349","3","141",""
"50","R_1g0itbPKCZnAAfr","standard","1","50","LP","5.5010771219302","401.234","406.753","407.177","5.943","0.424","3","144",""
"51","R_1g0itbPKCZnAAfr","standard","1","51","LP","13.0392072382594","408.186","421.228","421.563","13.377","0.335","3","147",""
"52","R_1g0itbPKCZnAAfr","standard","1","52","LP","13.0392072382594","422.572","435.622","436.026","13.454","0.404","3","150",""
"53","R_1g0itbPKCZnAAfr","standard","1","53","LP","0.661783713916415","437.041","437.712","438.026","0.985","0.314","3","153",""
"54","R_1g0itbPKCZnAAfr","standard","1","54","LP","3.49090909090909","439.029","442.528","442.915","3.886","0.387","3","156",""
"55","R_1g0itbPKCZnAAfr","standard","1","55","LP","3.49090909090909","443.923","447.423","447.818","3.895","0.395","3","159",""
"56","R_1g0itbPKCZnAAfr","standard","1","56","LP","3.49090909090909","448.822","452.323","452.746","3.924","0.423","3","162",""
"57","R_1g0itbPKCZnAAfr","standard","1","57","LP","0.264713485566566","453.748","454.017","454.475","0.727","0.458","3","165",""
"58","R_1g0itbPKCZnAAfr","standard","1","58","LP","8.51632916846187","455.487","464.006","464.443","8.956","0.437","3","168",""
"59","R_1g0itbPKCZnAAfr","standard","1","59","LP","0.661783713916415","465.453","466.125","466.497","1.044","0.372","3","171",""
"60","R_1g0itbPKCZnAAfr","standard","1","60","LP","0.264713485566566","467.515","467.792","468.329","0.814","0.537","3","174",""
"61","R_1g0itbPKCZnAAfr","standard","1","61","LP","19.8235243429556","469.335","489.178","489.57","20.235","0.392","3","177",""
"62","R_1g0itbPKCZnAAfr","standard","1","62","LP","8.51632916846187","490.578","499.109","499.452","8.874","0.343","3","180",""
"63","R_1g0itbPKCZnAAfr","standard","1","63","LP","13.0392072382594","500.462","513.532","513.981","13.519","0.449","3","180","12495"
"64","R_1g0itbPKCZnAAfr","standard","1","64","LP","0.661783713916415","515.004","515.686","515.969","0.965","0.283","3","183",""
"65","R_1g0itbPKCZnAAfr","standard","1","65","LP","13.0392072382594","516.983","530.033","530.384","13.401","0.351","3","186",""
"66","R_1g0itbPKCZnAAfr","standard","1","66","LP","0.661783713916415","531.405","532.073","532.512","1.107","0.439","3","189",""
"67","R_1g0itbPKCZnAAfr","standard","1","67","LP","1.25738905644119","533.516","534.781","535.155","1.639","0.374","3","192",""
"68","R_1g0itbPKCZnAAfr","standard","1","68","LP","0.661783713916415","536.182","536.858","537.24","1.058","0.382","3","195",""
"69","R_1g0itbPKCZnAAfr","standard","1","69","LP","30","538.249","568.252","568.538","30.289","0.286","3","198",""
"70","R_1g0itbPKCZnAAfr","standard","1","70","LP","13.0392072382594","569.547","582.595","582.932","13.385","0.337","3","201",""
"71","R_1g0itbPKCZnAAfr","standard","1","71","LP","2.15079707022835","583.94","586.092","586.473","2.533","0.381","3","204",""
"72","R_1g0itbPKCZnAAfr","standard","1","72","LP","3.49090909090909","587.488","590.989","591.425","3.937","0.436","3","207",""
"73","R_1g0itbPKCZnAAfr","standard","1","73","LP","3.49090909090909","592.428","595.921","596.295","3.867","0.374","3","210",""
"74","R_1g0itbPKCZnAAfr","standard","1","74","LP","8.51632916846187","597.3","605.824","606.318","9.018","0.494","3","213",""
"75","R_1g0itbPKCZnAAfr","standard","1","75","LP","2.15079707022835","607.327","609.499","609.874","2.547","0.375","3","216",""
"76","R_1g0itbPKCZnAAfr","standard","1","76","LP","0.661783713916415","610.887","611.556","611.934","1.047","0.378","3","219",""
"77","R_1g0itbPKCZnAAfr","standard","1","77","LP","30","612.941","642.944","643.294","30.353","0.35","3","222",""
"78","R_1g0itbPKCZnAAfr","standard","1","78","LP","3.49090909090909","644.311","647.818","648.22","3.909","0.402","3","225",""
"79","R_1g0itbPKCZnAAfr","standard","1","79","LP","1.25738905644119","649.249","650.51","651.125","1.876","0.615","3","228",""
"80","R_1g0itbPKCZnAAfr","standard","1","80","LP","8.51632916846187","652.129","660.654","661.062","8.933","0.408","3","231",""
"81","R_1g0itbPKCZnAAfr","standard","1","81","LP","13.0392072382594","662.068","675.119","NA","14.057","NA","0","231",""
"82","R_1g0itbPKCZnAAfr","standard","1","82","LP","3.49090909090909","677.147","680.655","680.972","3.825","0.317","3","234",""
"83","R_1g0itbPKCZnAAfr","standard","1","83","LP","0.264713485566566","681.991","682.265","682.826","0.835","0.561","3","237",""
"84","R_1g0itbPKCZnAAfr","standard","1","84","LP","19.8235243429556","683.832","703.67","703.976","20.144","0.306","3","240",""
"85","R_1g0itbPKCZnAAfr","standard","1","85","LP","13.0392072382594","704.985","718.028","718.6","13.615","0.572","3","243",""
"86","R_1g0itbPKCZnAAfr","standard","1","86","LP","30","719.61","749.614","749.876","30.266","0.262","3","246",""
"87","R_1g0itbPKCZnAAfr","standard","1","87","LP","8.51632916846187","750.884","759.404","759.978","9.094","0.574","3","249",""
"88","R_1g0itbPKCZnAAfr","standard","1","88","LP","1.25738905644119","760.98","762.24","762.66","1.68","0.42","3","252",""
"89","R_1g0itbPKCZnAAfr","standard","1","89","LP","2.15079707022835","763.682","765.842","766.172","2.49","0.33","3","255",""
"90","R_1g0itbPKCZnAAfr","standard","1","90","LP","0.264713485566566","767.181","767.465","767.987","0.806","0.522","3","258",""
"91","R_1g0itbPKCZnAAfr","standard","1","91","LP","2.15079707022835","768.99","771.15","771.643","2.653","0.493","3","261",""
"92","R_1g0itbPKCZnAAfr","standard","1","92","LP","13.0392072382594","772.655","785.7","786.073","13.418","0.373","3","264",""
"93","R_1g0itbPKCZnAAfr","standard","1","93","LP","8.51632916846187","787.076","795.608","796.152","9.076","0.544","3","267",""
"94","R_1g0itbPKCZnAAfr","standard","1","94","LP","0.661783713916415","797.156","797.827","798.184","1.028","0.357","3","270",""
"95","R_1g0itbPKCZnAAfr","standard","1","95","LP","5.5010771219302","799.188","804.692","805.082","5.894","0.39","3","273",""
"96","R_1g0itbPKCZnAAfr","standard","1","96","LP","19.8235243429556","806.084","825.916","826.397","20.313","0.481","3","273","416"
"97","R_1g0itbPKCZnAAfr","standard","1","97","LP","8.51632916846187","827.414","835.944","836.378","8.964","0.434","3","276",""
"98","R_1g0itbPKCZnAAfr","standard","1","98","LP","3.49090909090909","837.38","840.888","841.312","3.932","0.424","3","279",""
"99","R_1g0itbPKCZnAAfr","standard","1","99","LP","0.661783713916415","842.314","842.988","843.471","1.157","0.483","3","282",""
"100","R_1g0itbPKCZnAAfr","standard","1","100","LP","5.5010771219302","844.476","849.98","850.399","5.923","0.419","3","285",""
"101","R_1g0itbPKCZnAAfr","standard","1","101","LP","13.0392072382594","851.413","864.483","865.044","13.631","0.561","3","288",""
"102","R_1g0itbPKCZnAAfr","standard","1","102","LP","13.0392072382594","866.051","879.108","879.435","13.384","0.327","3","288","10664"
"103","R_1g0itbPKCZnAAfr","standard","2","1","LP","30","0","NaN","14.322","14.322","NaN","0","288",NA
"104","R_1g0itbPKCZnAAfr","standard","2","2","LP","0.661783713916415","15.328","16.011","16.431","1.103","0.42","3","291",NA
"105","R_1g0itbPKCZnAAfr","standard","2","3","LP","1.25738905644119","17.437","18.718","19.129","1.692","0.411","3","294",NA
"106","R_1g0itbPKCZnAAfr","standard","2","4","LP","13.0392072382594","20.148","NaN","24.682","4.534","NaN","0","294",NA
"107","R_1g0itbPKCZnAAfr","standard","2","5","LP","0.264713485566566","25.699","25.967","26.59","0.891","0.623","3","297",NA
"108","R_1g0itbPKCZnAAfr","standard","2","6","LP","19.8235243429556","27.602","NaN","31.619","4.017","NaN","0","297",NA
"109","R_1g0itbPKCZnAAfr","standard","2","7","LP","8.51632916846187","32.626","NaN","38.381","5.755","NaN","0","297",NA
"110","R_1g0itbPKCZnAAfr","standard","2","8","LP","2.15079707022835","39.397","41.563","41.999","2.602","0.436","3","300",NA
"111","R_1g0itbPKCZnAAfr","standard","2","9","LP","5.5010771219302","43.011","48.518","48.878","5.867","0.36","3","303",NA
"112","R_1g0itbPKCZnAAfr","standard","2","10","LP","13.0392072382594","49.889","NaN","59.072","9.183","NaN","0","303",NA
"113","R_1g0itbPKCZnAAfr","standard","2","11","LP","2.15079707022835","60.091","62.249","63.006","2.915","0.757","3","306",NA
"114","R_1g0itbPKCZnAAfr","standard","2","12","LP","0.264713485566566","64.007","64.291","64.929","0.922","0.638","3","309",NA
"115","R_1g0itbPKCZnAAfr","standard","2","13","LP","5.5010771219302","65.934","71.44","71.731","5.797","0.291","3","312",NA
"116","R_1g0itbPKCZnAAfr","standard","2","14","LP","30","72.734","NaN","81.327","8.593","NaN","0","312",NA
"117","R_1g0itbPKCZnAAfr","standard","2","15","LP","0.661783713916415","82.339","83.017","83.443","1.104","0.426","3","315",NA
"118","R_1g0itbPKCZnAAfr","standard","2","16","LP","1.25738905644119","84.45","85.707","86.15","1.7","0.443","3","318",NA
"119","R_1g0itbPKCZnAAfr","standard","2","17","LP","30","87.158","NaN","95.486","8.328","NaN","0","318",NA
"120","R_1g0itbPKCZnAAfr","standard","2","18","LP","8.51632916846187","96.503","105.031","105.458","8.955","0.427","3","321",NA
"121","R_1g0itbPKCZnAAfr","standard","2","19","LP","1.25738905644119","106.462","107.73","108.127","1.665","0.397","3","324",NA
"122","R_1g0itbPKCZnAAfr","standard","2","20","LP","3.49090909090909","109.134","112.643","113.005","3.871","0.362","3","327",NA
"123","R_1g0itbPKCZnAAfr","standard","2","21","LP","8.51632916846187","114.01","122.533","122.881","8.871","0.348","3","330",NA
"124","R_1g0itbPKCZnAAfr","standard","2","22","LP","0.661783713916415","123.895","124.563","125.037","1.142","0.474","3","333",NA
"125","R_1g0itbPKCZnAAfr","standard","2","23","LP","1.25738905644119","126.04","127.316","127.634","1.594","0.318","3","336",NA
"126","R_1g0itbPKCZnAAfr","standard","2","24","LP","5.5010771219302","128.638","134.14","134.493","5.855","0.353","3","339",NA
"127","R_1g0itbPKCZnAAfr","standard","2","25","LP","19.8235243429556","135.515","NaN","143.44","7.925","NaN","0","339",NA
"128","R_1g0itbPKCZnAAfr","standard","2","26","LP","2.15079707022835","144.446","146.61","147.139","2.693","0.529","3","342",NA
"129","R_1g0itbPKCZnAAfr","standard","2","27","LP","30","148.148","NaN","158.564","10.416","NaN","0","342",NA
"130","R_1g0itbPKCZnAAfr","standard","2","28","LP","8.51632916846187","159.576","168.102","168.525","8.949","0.423","3","345",NA
"131","R_1g0itbPKCZnAAfr","standard","2","29","LP","3.49090909090909","169.532","173.038","173.465","3.933","0.427","3","348",NA
"132","R_1g0itbPKCZnAAfr","standard","2","30","LP","13.0392072382594","174.487","NaN","185.669","11.182","NaN","0","348",NA
"133","R_1g0itbPKCZnAAfr","standard","2","31","LP","19.8235243429556","186.686","NaN","199.173","12.487","NaN","0","348",NA
"134","R_1g0itbPKCZnAAfr","standard","2","32","LP","0.264713485566566","200.189","200.454","201.398","1.209","0.944","3","351",NA
"135","R_1g0itbPKCZnAAfr","standard","2","33","LP","2.15079707022835","202.408","204.581","205.242","2.834","0.661","3","354",NA
"136","R_1g0itbPKCZnAAfr","standard","2","34","LP","19.8235243429556","206.251","NaN","218.874","12.623","NaN","0","354",NA
"137","R_1g0itbPKCZnAAfr","standard","2","35","LP","0.264713485566566","219.89","220.174","220.734","0.844","0.56","3","357",NA
"138","R_1g0itbPKCZnAAfr","standard","2","36","LP","1.25738905644119","221.741","223.008","223.343","1.602","0.335","3","360",NA
"139","R_1g0itbPKCZnAAfr","standard","2","37","LP","3.49090909090909","224.35","227.85","228.207","3.857","0.357","3","363",NA
"140","R_1g0itbPKCZnAAfr","standard","2","38","LP","30","229.216","NaN","245.725","16.509","NaN","0","363",NA
"141","R_1g0itbPKCZnAAfr","standard","2","39","LP","2.15079707022835","246.735","248.894","249.276","2.541","0.382","3","366",NA
"142","R_1g0itbPKCZnAAfr","standard","2","40","LP","8.51632916846187","250.293","258.817",NA,"9.535",NA,"0","366",NA
"143","R_1g0itbPKCZnAAfr","standard","2","41","LP","19.8235243429556","260.843","NaN","269.457","8.614","NaN","0","366",NA
"144","R_1g0itbPKCZnAAfr","standard","2","42","LP","13.0392072382594","270.462","NaN","280.095","9.633","NaN","0","366",NA
"145","R_1g0itbPKCZnAAfr","standard","2","43","LP","30","281.104","NaN","291.022","9.918","NaN","0","366",NA
"146","R_1g0itbPKCZnAAfr","standard","2","44","LP","19.8235243429556","292.034","NaN","301.518","9.484","NaN","0","366",NA
"147","R_1g0itbPKCZnAAfr","standard","2","45","LP","1.25738905644119","302.532","303.805","304.222","1.69","0.417","3","369",NA
"148","R_1g0itbPKCZnAAfr","standard","2","46","LP","30","305.234","NaN","316.701","11.467","NaN","0","369",NA
"149","R_1g0itbPKCZnAAfr","standard","2","47","LP","2.15079707022835","317.715","319.87","320.452","2.737","0.582","3","372",NA
"150","R_1g0itbPKCZnAAfr","standard","2","48","LP","3.49090909090909","321.454","324.952","325.377","3.923","0.425","3","375",NA
"151","R_1g0itbPKCZnAAfr","standard","2","49","LP","3.49090909090909","326.405","329.902","330.27","3.865","0.368","3","378",NA
"152","R_1g0itbPKCZnAAfr","standard","2","50","LP","19.8235243429556","331.278","NaN","346.714","15.436","NaN","0","378",NA
"153","R_1g0itbPKCZnAAfr","standard","2","51","LP","3.49090909090909","347.72","351.219","351.581","3.861","0.362","3","381",NA
"154","R_1g0itbPKCZnAAfr","standard","2","52","LP","30","352.594","NaN","363.203","10.609","NaN","0","381",NA
"155","R_1g0itbPKCZnAAfr","standard","2","53","LP","0.264713485566566","364.218","364.488","364.981","0.763","0.493","3","384",NA
"156","R_1g0itbPKCZnAAfr","standard","2","54","LP","0.264713485566566","366.006","366.278","366.759","0.753","0.481","3","387",NA
"157","R_1g0itbPKCZnAAfr","standard","2","55","LP","3.49090909090909","367.771","371.262","371.622","3.851","0.36","3","390",NA
"158","R_1g0itbPKCZnAAfr","standard","2","56","LP","13.0392072382594","372.632","NaN","382.903","10.271","NaN","0","390",NA
"159","R_1g0itbPKCZnAAfr","standard","2","57","LP","3.49090909090909","383.914","387.407","387.83","3.916","0.423","3","393",NA
"160","R_1g0itbPKCZnAAfr","standard","2","58","LP","1.25738905644119","388.834","390.098","390.442","1.608","0.344","3","396",NA
"161","R_1g0itbPKCZnAAfr","standard","2","59","LP","19.8235243429556","391.453","NaN","401.059","9.606","NaN","0","396",NA
"162","R_1g0itbPKCZnAAfr","standard","2","60","LP","1.25738905644119","402.082","403.343","403.812","1.73","0.469","3","399",NA
"163","R_1g0itbPKCZnAAfr","standard","2","61","LP","0.661783713916415","404.818","405.501","406.002","1.184","0.501","3","402",NA
"164","R_1g0itbPKCZnAAfr","standard","2","62","LP","13.0392072382594","407.016","NaN","416.924","9.908","NaN","0","402",NA
"165","R_1g0itbPKCZnAAfr","standard","2","63","LP","0.661783713916415","417.928","418.593","419.018","1.09","0.425","3","405",NA
"166","R_1g0itbPKCZnAAfr","standard","2","64","LP","1.25738905644119","420.026","421.295","421.687","1.661","0.392","3","408",NA
"167","R_1g0itbPKCZnAAfr","standard","2","65","LP","2.15079707022835","422.703","424.854","425.284","2.581","0.43","3","411",NA
"168","R_1g0itbPKCZnAAfr","standard","2","66","LP","19.8235243429556","426.294","NaN","435.812","9.518","NaN","0","411",NA
"169","R_1g0itbPKCZnAAfr","standard","2","67","LP","19.8235243429556","436.813","NaN","445.168","8.355","NaN","0","411",NA
"170","R_1g0itbPKCZnAAfr","standard","2","68","LP","0.264713485566566","446.198","446.481","447.057","0.859","0.576","3","414",NA
"171","R_1g0itbPKCZnAAfr","standard","2","69","LP","0.661783713916415","448.079","448.756","449.238","1.159","0.482","3","417",NA
"172","R_1g0itbPKCZnAAfr","standard","2","70","LP","19.8235243429556","450.24","NaN","458.725","8.485","NaN","0","417",NA
"173","R_1g0itbPKCZnAAfr","standard","2","71","LP","19.8235243429556","459.728","NaN","466.514","6.786","NaN","0","417",NA
"174","R_1g0itbPKCZnAAfr","standard","2","72","LP","1.25738905644119","467.517","468.784","469.152","1.635","0.368","3","420",NA
"175","R_1g0itbPKCZnAAfr","standard","2","73","LP","19.8235243429556","470.172","NaN","477.23","7.058","NaN","0","420",NA
"176","R_1g0itbPKCZnAAfr","standard","2","74","LP","1.25738905644119","478.249","479.516","479.944","1.695","0.428","3","423",NA
"177","R_1g0itbPKCZnAAfr","standard","2","75","LP","2.15079707022835","480.954","483.117","483.474","2.52","0.357","3","426",NA
"178","R_1g0itbPKCZnAAfr","standard","2","76","LP","5.5010771219302","484.482","490.001","490.373","5.891","0.372","3","429",NA
"179","R_1g0itbPKCZnAAfr","standard","2","77","LP","30","491.385","NaN","498.044","6.659","NaN","0","429",NA
"180","R_1g0itbPKCZnAAfr","standard","2","78","LP","5.5010771219302","499.049","504.554","504.974","5.925","0.42","3","432",NA
"181","R_1g0itbPKCZnAAfr","standard","2","79","LP","5.5010771219302","505.993","511.508","511.86","5.867","0.352","3","435",NA
"182","R_1g0itbPKCZnAAfr","standard","2","80","LP","19.8235243429556","512.871","NaN","521.896","9.025","NaN","0","435",NA
"183","R_1g0itbPKCZnAAfr","standard","2","81","LP","3.49090909090909","522.91","526.414","526.9","3.99","0.486","3","438",NA
"184","R_1g0itbPKCZnAAfr","standard","2","82","LP","30","527.91","NaN","532.417","4.507","NaN","0","438",NA
"185","R_1g0itbPKCZnAAfr","standard","2","83","LP","19.8235243429556","533.424","NaN","540.547","7.123","NaN","0","438",NA
"186","R_1g0itbPKCZnAAfr","standard","2","84","LP","3.49090909090909","541.55","545.046","545.41","3.86","0.364","3","441",NA
"187","R_1g0itbPKCZnAAfr","standard","2","85","LP","0.264713485566566","546.434","546.704","547.066","0.632","0.362","3","444",NA
"188","R_1g0itbPKCZnAAfr","standard","2","86","LP","30","548.07","NaN","553.677","5.607","NaN","0","444",NA
"189","R_1g0itbPKCZnAAfr","standard","2","87","LP","3.49090909090909","554.69","558.182","558.546","3.856","0.364","3","447",NA
"190","R_1g0itbPKCZnAAfr","standard","2","88","LP","0.661783713916415","559.557","560.221","560.675","1.118","0.454","3","450",NA
"191","R_1g0itbPKCZnAAfr","standard","2","89","LP","0.264713485566566","561.678","561.95","562.498","0.82","0.548","3","453",NA
"192","R_1g0itbPKCZnAAfr","standard","2","90","LP","5.5010771219302","563.514","NaN","568.095","4.581","NaN","0","453",NA
"193","R_1g0itbPKCZnAAfr","standard","2","91","LP","30","569.117","NaN","572.874","3.757","NaN","0","453",NA
"194","R_1g0itbPKCZnAAfr","standard","2","92","LP","0.264713485566566","573.878","574.145","574.661","0.783","0.516","3","456",NA
"195","R_1g0itbPKCZnAAfr","standard","2","93","LP","30","575.674","NaN","579.611","3.937","NaN","0","456",NA
"196","R_1g0itbPKCZnAAfr","standard","2","94","LP","0.264713485566566","580.614","580.892",NA,"1.28",NA,"0","456",NA
"197","R_1g0itbPKCZnAAfr","standard","2","95","LP","0.661783713916415","582.903","583.584","583.989","1.086","0.405","3","459",NA
"198","R_1g0itbPKCZnAAfr","standard","2","96","LP","2.15079707022835","584.994","587.15","587.574","2.58","0.424","3","462",NA
"199","R_1g0itbPKCZnAAfr","standard","2","97","LP","19.8235243429556","588.584","NaN","592.483","3.899","NaN","0","462",NA
"200","R_1g0itbPKCZnAAfr","standard","2","98","LP","2.15079707022835","593.498","595.657","595.845","2.347","0.188","3","465",NA
"201","R_1g0itbPKCZnAAfr","standard","2","99","LP","2.15079707022835","596.871","599.032","599.421","2.55","0.389","3","468",NA
