"","subject_id","condition","n_block","n_trialIdx","f_timing_condition","n_scheduled_delay","n_trial_start_time","n_rewarded_time_fin","n_sell_time_fin","n_time_waited_fin","RT_fin","n_trial_earnings_fin","n_total_earnings_fin","keypress_times"
"1","R_1HqVpTbw3tyPrZY","standard","1","1","LP","1.25738905644119","0.001","1.274","1.817","1.816","0.543","3","3",""
"2","R_1HqVpTbw3tyPrZY","standard","1","2","LP","30","2.818","32.828","33.458","30.64","0.63","3","6",""
"3","R_1HqVpTbw3tyPrZY","standard","1","3","LP","13.0392072382594","34.466","47.518","48.017","13.551","0.499","3","9",""
"4","R_1HqVpTbw3tyPrZY","standard","1","4","LP","30","49.03","79.036","79.409","30.379","0.373","3","12",""
"5","R_1HqVpTbw3tyPrZY","standard","1","5","LP","0.661783713916415","80.41","81.08","NA","1.671","NA","0","12",""
"6","R_1HqVpTbw3tyPrZY","standard","1","6","LP","0.661783713916415","83.103","83.766","NA","1.678","NA","0","12",""
"7","R_1HqVpTbw3tyPrZY","standard","1","7","LP","0.661783713916415","85.784","86.449","86.968","1.184","0.519","3","15",""
"8","R_1HqVpTbw3tyPrZY","standard","1","8","LP","1.25738905644119","87.978","89.241","89.865","1.887","0.624","3","18",""
"9","R_1HqVpTbw3tyPrZY","standard","1","9","LP","0.661783713916415","90.88","91.551","92.017","1.137","0.466","3","21",""
"10","R_1HqVpTbw3tyPrZY","standard","1","10","LP","19.8235243429556","93.032","112.864","113.488","20.456","0.624","3","24",""
"11","R_1HqVpTbw3tyPrZY","standard","1","11","LP","30","114.505","144.514","144.944","30.439","0.43","3","27",""
"12","R_1HqVpTbw3tyPrZY","standard","1","12","LP","3.49090909090909","145.951","149.45","150.202","4.251","0.752","3","30",""
"13","R_1HqVpTbw3tyPrZY","standard","1","13","LP","0.661783713916415","151.212","151.883","152.8","1.588","0.917","3","33",""
"14","R_1HqVpTbw3tyPrZY","standard","1","14","LP","0.661783713916415","153.804","154.474","155.441","1.637","0.967","3","36",""
"15","R_1HqVpTbw3tyPrZY","standard","1","15","LP","19.8235243429556","156.457","176.283","176.827","20.37","0.544","3","36","12943"
"16","R_1HqVpTbw3tyPrZY","standard","1","16","LP","19.8235243429556","177.828","197.652","198.449","20.621","0.797","3","39",""
"17","R_1HqVpTbw3tyPrZY","standard","1","17","LP","30","199.449","229.45","229.922","30.473","0.472","3","42",""
"18","R_1HqVpTbw3tyPrZY","standard","1","18","LP","0.264713485566566","230.922","231.188","232.112","1.19","0.924","3","45",""
"19","R_1HqVpTbw3tyPrZY","standard","1","19","LP","8.51632916846187","233.113","241.63","242.32","9.207","0.69","3","48",""
"20","R_1HqVpTbw3tyPrZY","standard","1","20","LP","5.5010771219302","243.321","248.824","249.384","6.063","0.56","3","51",""
"21","R_1HqVpTbw3tyPrZY","standard","1","21","LP","0.661783713916415","250.385","251.046","NA","1.669","NA","0","51",""
"22","R_1HqVpTbw3tyPrZY","standard","1","22","LP","3.49090909090909","253.055","256.545","257.088","4.033","0.543","3","54",""
"23","R_1HqVpTbw3tyPrZY","standard","1","23","LP","13.0392072382594","258.101","271.155","272.025","13.924","0.87","3","57",""
"24","R_1HqVpTbw3tyPrZY","standard","1","24","LP","0.264713485566566","273.026","273.291","NA","1.265","NA","0","57",""
"25","R_1HqVpTbw3tyPrZY","standard","1","25","LP","3.49090909090909","275.292","278.783","279.336","4.044","0.553","3","60",""
"26","R_1HqVpTbw3tyPrZY","standard","1","26","LP","3.49090909090909","280.337","283.827","284.36","4.023","0.533","3","63",""
"27","R_1HqVpTbw3tyPrZY","standard","1","27","LP","8.51632916846187","285.362","293.88","294.6","9.238","0.72","3","66",""
"28","R_1HqVpTbw3tyPrZY","standard","1","28","LP","0.264713485566566","295.601","295.866","NA","1.266","NA","0","66",""
"29","R_1HqVpTbw3tyPrZY","standard","1","29","LP","30","297.869","327.869","328.305","30.436","0.436","3","69",""
"30","R_1HqVpTbw3tyPrZY","standard","1","30","LP","8.51632916846187","329.305","337.822","338.369","9.064","0.547","3","72",""
"31","R_1HqVpTbw3tyPrZY","standard","1","31","LP","30","339.369","369.37","369.784","30.415","0.414","3","75",""
"32","R_1HqVpTbw3tyPrZY","standard","1","32","LP","19.8235243429556","370.785","390.609","391.432","20.647","0.823","3","78",""
"33","R_1HqVpTbw3tyPrZY","standard","1","33","LP","2.15079707022835","392.433","394.587","395.184","2.751","0.597","3","81",""
"34","R_1HqVpTbw3tyPrZY","standard","1","34","LP","30","396.185","426.186","426.629","30.444","0.443","3","84",""
"35","R_1HqVpTbw3tyPrZY","standard","1","35","LP","8.51632916846187","427.63","436.146","436.776","9.146","0.63","3","87",""
"36","R_1HqVpTbw3tyPrZY","standard","1","36","LP","5.5010771219302","437.778","443.279","443.927","6.149","0.648","3","90",""
"37","R_1HqVpTbw3tyPrZY","standard","1","37","LP","13.0392072382594","444.929","457.972","458.53","13.601","0.558","3","93",""
"38","R_1HqVpTbw3tyPrZY","standard","1","38","LP","0.661783713916415","459.531","460.192","460.848","1.317","0.656","3","96",""
"39","R_1HqVpTbw3tyPrZY","standard","1","39","LP","3.49090909090909","461.848","465.339","465.928","4.08","0.589","3","99",""
"40","R_1HqVpTbw3tyPrZY","standard","1","40","LP","2.15079707022835","466.929","469.08","469.672","2.743","0.592","3","102",""
"41","R_1HqVpTbw3tyPrZY","standard","1","41","LP","19.8235243429556","470.673","490.501","491.288","20.615","0.787","3","105",""
"42","R_1HqVpTbw3tyPrZY","standard","1","42","LP","3.49090909090909","492.3","495.796","496.36","4.06","0.564","3","108",""
"43","R_1HqVpTbw3tyPrZY","standard","1","43","LP","30","497.372","527.373","527.897","30.525","0.524","3","111",""
"44","R_1HqVpTbw3tyPrZY","standard","1","44","LP","5.5010771219302","528.903","534.414","535.08","6.177","0.666","3","114",""
"45","R_1HqVpTbw3tyPrZY","standard","1","45","LP","8.51632916846187","536.083","544.602","545.192","9.109","0.59","3","117",""
"46","R_1HqVpTbw3tyPrZY","standard","1","46","LP","19.8235243429556","546.207","566.033","NA","20.84","NA","0","117",""
"47","R_1HqVpTbw3tyPrZY","standard","1","47","LP","13.0392072382594","568.06","581.111","581.784","13.724","0.673","3","120",""
"48","R_1HqVpTbw3tyPrZY","standard","1","48","LP","19.8235243429556","582.797","602.623","603.317","20.52","0.694","3","123",""
"49","R_1HqVpTbw3tyPrZY","standard","1","49","LP","8.51632916846187","604.324","612.845","613.504","9.18","0.659","3","126",""
"50","R_1HqVpTbw3tyPrZY","standard","1","50","LP","5.5010771219302","614.515","620.024","620.663","6.148","0.639","3","129",""
"51","R_1HqVpTbw3tyPrZY","standard","1","51","LP","19.8235243429556","621.677","641.514","642.192","20.515","0.678","3","129","5789"
"52","R_1HqVpTbw3tyPrZY","standard","1","52","LP","19.8235243429556","643.198","663.036","663.632","20.434","0.596","3","132",""
"53","R_1HqVpTbw3tyPrZY","standard","1","53","LP","30","664.643","694.656","695.191","30.548","0.535","3","135",""
"54","R_1HqVpTbw3tyPrZY","standard","1","54","LP","8.51632916846187","696.2","704.718","705.591","9.391","0.873","3","138",""
"55","R_1HqVpTbw3tyPrZY","standard","1","55","LP","3.49090909090909","706.605","710.101","710.903","4.298","0.802","3","141",""
"56","R_1HqVpTbw3tyPrZY","standard","1","56","LP","8.51632916846187","711.91","720.43","721.159","9.249","0.729","3","144",""
"57","R_1HqVpTbw3tyPrZY","standard","1","57","LP","3.49090909090909","722.161","725.655","726.297","4.136","0.642","3","147",""
"58","R_1HqVpTbw3tyPrZY","standard","1","58","LP","5.5010771219302","727.31","732.817","733.439","6.129","0.622","3","150",""
"59","R_1HqVpTbw3tyPrZY","standard","1","59","LP","19.8235243429556","734.44","754.271","755.063","20.623","0.792","3","153",""
"60","R_1HqVpTbw3tyPrZY","standard","1","60","LP","5.5010771219302","756.067","761.581","762.191","6.124","0.61","3","156",""
"61","R_1HqVpTbw3tyPrZY","standard","1","61","LP","0.661783713916415","763.205","763.875","NA","1.684","NA","0","156",""
"62","R_1HqVpTbw3tyPrZY","standard","1","62","LP","0.661783713916415","765.903","766.574","767.191","1.288","0.617","3","159",""
"63","R_1HqVpTbw3tyPrZY","standard","1","63","LP","3.49090909090909","768.196","771.69","772.255","4.059","0.565","3","162",""
"64","R_1HqVpTbw3tyPrZY","standard","1","64","LP","5.5010771219302","773.267","778.775","779.378","6.111","0.603","3","165",""
"65","R_1HqVpTbw3tyPrZY","standard","1","65","LP","2.15079707022835","780.384","782.535","783.284","2.9","0.749","3","168",""
"66","R_1HqVpTbw3tyPrZY","standard","1","66","LP","30","784.298","814.303","814.847","30.549","0.544","3","171",""
"67","R_1HqVpTbw3tyPrZY","standard","1","67","LP","13.0392072382594","815.848","828.894","829.567","13.719","0.673","3","174",""
"68","R_1HqVpTbw3tyPrZY","standard","1","68","LP","30","830.579","860.604","861.207","30.628","0.603","3","177",""
"69","R_1HqVpTbw3tyPrZY","standard","1","69","LP","1.25738905644119","862.213","863.477","864.151","1.938","0.674","3","180",""
"70","R_1HqVpTbw3tyPrZY","standard","1","70","LP","3.49090909090909","865.163","868.658","869.431","4.268","0.773","3","183",""
"71","R_1HqVpTbw3tyPrZY","standard","2","1","LP","0.264713485566566","0","0.292","0.704","0.704","0.412","3","186",NA
"72","R_1HqVpTbw3tyPrZY","standard","2","2","LP","0.264713485566566","1.708","1.974","2.168","0.46","0.194","3","189",NA
"73","R_1HqVpTbw3tyPrZY","standard","2","3","LP","19.8235243429556","3.175","NaN","3.399","0.224","NaN","0","189",NA
"74","R_1HqVpTbw3tyPrZY","standard","2","4","LP","1.25738905644119","4.407","NaN","4.599","0.192","NaN","0","189",NA
"75","R_1HqVpTbw3tyPrZY","standard","2","5","LP","13.0392072382594","5.609","NaN","6.934","1.325","NaN","0","189",NA
"76","R_1HqVpTbw3tyPrZY","standard","2","6","LP","13.0392072382594","7.939","NaN","8.263","0.324","NaN","0","189",NA
"77","R_1HqVpTbw3tyPrZY","standard","2","7","LP","0.661783713916415","9.264","NaN","9.472","0.208","NaN","0","189",NA
"78","R_1HqVpTbw3tyPrZY","standard","2","8","LP","19.8235243429556","10.486","NaN","10.754","0.268","NaN","0","189",NA
"79","R_1HqVpTbw3tyPrZY","standard","2","9","LP","30","11.766","NaN","12.711","0.945","NaN","0","189",NA
"80","R_1HqVpTbw3tyPrZY","standard","2","10","LP","2.15079707022835","13.72","NaN","15.135","1.415","NaN","0","189",NA
"81","R_1HqVpTbw3tyPrZY","standard","2","11","LP","1.25738905644119","16.142","NaN","16.607","0.465","NaN","0","189",NA
"82","R_1HqVpTbw3tyPrZY","standard","2","12","LP","5.5010771219302","17.608","NaN","17.663","0.055","NaN","0","189",NA
"83","R_1HqVpTbw3tyPrZY","standard","2","13","LP","5.5010771219302","18.67","NaN","19.127","0.457","NaN","0","189",NA
"84","R_1HqVpTbw3tyPrZY","standard","2","14","LP","5.5010771219302","20.137","NaN","20.806","0.669","NaN","0","189",NA
"85","R_1HqVpTbw3tyPrZY","standard","2","15","LP","30","21.821","NaN","26.967","5.146","NaN","0","189",NA
"86","R_1HqVpTbw3tyPrZY","standard","2","16","LP","8.51632916846187","27.972","NaN","29.326","1.354","NaN","0","189",NA
"87","R_1HqVpTbw3tyPrZY","standard","2","17","LP","5.5010771219302","30.333","NaN","31.655","1.322","NaN","0","189",NA
"88","R_1HqVpTbw3tyPrZY","standard","2","18","LP","19.8235243429556","32.661","NaN","34.959","2.298","NaN","0","189",NA
"89","R_1HqVpTbw3tyPrZY","standard","2","19","LP","0.661783713916415","35.961","36.632","37.499","1.538","0.867","3","192",NA
"90","R_1HqVpTbw3tyPrZY","standard","2","20","LP","1.25738905644119","38.509","39.775",NA,"2.28",NA,"0","192",NA
"91","R_1HqVpTbw3tyPrZY","standard","2","21","LP","5.5010771219302","41.804","NaN","42.399","0.595","NaN","0","192",NA
"92","R_1HqVpTbw3tyPrZY","standard","2","22","LP","0.661783713916415","43.414","44.085",NA,"1.68",NA,"0","192",NA
"93","R_1HqVpTbw3tyPrZY","standard","2","23","LP","0.661783713916415","46.107","NaN","46.767","0.66","NaN","0","192",NA
"94","R_1HqVpTbw3tyPrZY","standard","2","24","LP","19.8235243429556","47.777","NaN","48.303","0.526","NaN","0","192",NA
"95","R_1HqVpTbw3tyPrZY","standard","2","25","LP","0.661783713916415","49.306","49.977",NA,"1.687",NA,"0","192",NA
"96","R_1HqVpTbw3tyPrZY","standard","2","26","LP","19.8235243429556","52.006","NaN","52.815","0.809","NaN","0","192",NA
"97","R_1HqVpTbw3tyPrZY","standard","2","27","LP","3.49090909090909","53.816","NaN","54.26","0.444","NaN","0","192",NA
"98","R_1HqVpTbw3tyPrZY","standard","2","28","LP","8.51632916846187","55.267","NaN","57.846","2.579","NaN","0","192",NA
"99","R_1HqVpTbw3tyPrZY","standard","2","29","LP","13.0392072382594","58.85","NaN","59.703","0.853","NaN","0","192",NA
"100","R_1HqVpTbw3tyPrZY","standard","2","30","LP","0.661783713916415","60.71","61.381",NA,"1.672",NA,"0","192",NA
"101","R_1HqVpTbw3tyPrZY","standard","2","31","LP","30","63.398","NaN","63.903","0.505","NaN","0","192",NA
"102","R_1HqVpTbw3tyPrZY","standard","2","32","LP","5.5010771219302","64.911","NaN","66.586","1.675","NaN","0","192",NA
"103","R_1HqVpTbw3tyPrZY","standard","2","33","LP","30","67.599","NaN","68.736","1.137","NaN","0","192",NA
"104","R_1HqVpTbw3tyPrZY","standard","2","34","LP","3.49090909090909","69.736","73.232",NA,"4.512",NA,"0","192",NA
"105","R_1HqVpTbw3tyPrZY","standard","2","35","LP","2.15079707022835","75.251","NaN","77.366","2.115","NaN","0","192",NA
"106","R_1HqVpTbw3tyPrZY","standard","2","36","LP","2.15079707022835","78.37","NaN","80.08","1.71","NaN","0","192",NA
"107","R_1HqVpTbw3tyPrZY","standard","2","37","LP","3.49090909090909","81.086","84.583","84.601","3.515","0.018","3","195",NA
"108","R_1HqVpTbw3tyPrZY","standard","2","38","LP","5.5010771219302","85.612","NaN","85.894","0.282","NaN","0","195",NA
"109","R_1HqVpTbw3tyPrZY","standard","2","39","LP","1.25738905644119","86.896","88.16","88.751","1.855","0.591","3","198",NA
"110","R_1HqVpTbw3tyPrZY","standard","2","40","LP","19.8235243429556","89.767","NaN","91.254","1.487","NaN","0","198",NA
"111","R_1HqVpTbw3tyPrZY","standard","2","41","LP","19.8235243429556","92.262","NaN","94.538","2.276","NaN","0","198",NA
"112","R_1HqVpTbw3tyPrZY","standard","2","42","LP","19.8235243429556","95.547","NaN","97.542","1.995","NaN","0","198",NA
"113","R_1HqVpTbw3tyPrZY","standard","2","43","LP","8.51632916846187","98.546","NaN","99.143","0.597","NaN","0","198",NA
"114","R_1HqVpTbw3tyPrZY","standard","2","44","LP","19.8235243429556","100.153","NaN","100.894","0.741","NaN","0","198",NA
"115","R_1HqVpTbw3tyPrZY","standard","2","45","LP","5.5010771219302","101.901","NaN","102.286","0.385","NaN","0","198",NA
"116","R_1HqVpTbw3tyPrZY","standard","2","46","LP","0.661783713916415","103.289","103.96",NA,"1.685",NA,"0","198",NA
"117","R_1HqVpTbw3tyPrZY","standard","2","47","LP","8.51632916846187","105.976","NaN","107.774","1.798","NaN","0","198",NA
"118","R_1HqVpTbw3tyPrZY","standard","2","48","LP","3.49090909090909","108.789","NaN","110.254","1.465","NaN","0","198",NA
"119","R_1HqVpTbw3tyPrZY","standard","2","49","LP","19.8235243429556","111.269","NaN","112.826","1.557","NaN","0","198",NA
"120","R_1HqVpTbw3tyPrZY","standard","2","50","LP","0.264713485566566","113.827","114.094","114.107","0.28","0.013","3","201",NA
"121","R_1HqVpTbw3tyPrZY","standard","2","51","LP","13.0392072382594","115.107","NaN","115.239","0.132","NaN","0","201",NA
"122","R_1HqVpTbw3tyPrZY","standard","2","52","LP","5.5010771219302","116.246","NaN","117.438","1.192","NaN","0","201",NA
"123","R_1HqVpTbw3tyPrZY","standard","2","53","LP","3.49090909090909","118.445","NaN","121.286","2.841","NaN","0","201",NA
"124","R_1HqVpTbw3tyPrZY","standard","2","54","LP","0.661783713916415","122.288","122.958","123.061","0.773","0.103","3","204",NA
"125","R_1HqVpTbw3tyPrZY","standard","2","55","LP","0.264713485566566","124.066","124.331","124.407","0.341","0.076","3","207",NA
"126","R_1HqVpTbw3tyPrZY","standard","2","56","LP","13.0392072382594","125.412","NaN","126.687","1.275","NaN","0","207",NA
"127","R_1HqVpTbw3tyPrZY","standard","2","57","LP","1.25738905644119","127.687","NaN","127.894","0.207","NaN","0","207",NA
"128","R_1HqVpTbw3tyPrZY","standard","2","58","LP","13.0392072382594","128.909","NaN","129.135","0.226","NaN","0","207",NA
"129","R_1HqVpTbw3tyPrZY","standard","2","59","LP","0.661783713916415","130.141","NaN","130.192","0.051","NaN","0","207",NA
"130","R_1HqVpTbw3tyPrZY","standard","2","60","LP","30","131.202","NaN","134.95","3.748","NaN","0","207",NA
"131","R_1HqVpTbw3tyPrZY","standard","2","61","LP","1.25738905644119","135.953","NaN","136.422","0.469","NaN","0","207",NA
"132","R_1HqVpTbw3tyPrZY","standard","2","62","LP","5.5010771219302","137.436","NaN","137.814","0.378","NaN","0","207",NA
"133","R_1HqVpTbw3tyPrZY","standard","2","63","LP","13.0392072382594","138.824","NaN","138.998","0.174","NaN","0","207",NA
"134","R_1HqVpTbw3tyPrZY","standard","2","64","LP","30","140.009","NaN","140.111","0.102","NaN","0","207",NA
"135","R_1HqVpTbw3tyPrZY","standard","2","65","LP","8.51632916846187","141.122","NaN","143.206","2.084","NaN","0","207",NA
"136","R_1HqVpTbw3tyPrZY","standard","2","66","LP","1.25738905644119","144.211","145.48",NA,"2.283",NA,"0","207",NA
"137","R_1HqVpTbw3tyPrZY","standard","2","67","LP","13.0392072382594","147.508","NaN","147.702","0.194","NaN","0","207",NA
"138","R_1HqVpTbw3tyPrZY","standard","2","68","LP","0.264713485566566","148.713","148.978","149.759","1.046","0.781","3","210",NA
"139","R_1HqVpTbw3tyPrZY","standard","2","69","LP","8.51632916846187","150.773","NaN","151.063","0.29","NaN","0","210",NA
"140","R_1HqVpTbw3tyPrZY","standard","2","70","LP","5.5010771219302","152.067","NaN","152.351","0.284","NaN","0","210",NA
"141","R_1HqVpTbw3tyPrZY","standard","2","71","LP","19.8235243429556","153.362","NaN","153.982","0.62","NaN","0","210",NA
"142","R_1HqVpTbw3tyPrZY","standard","2","72","LP","2.15079707022835","154.985","157.138",NA,"3.167",NA,"0","210",NA
"143","R_1HqVpTbw3tyPrZY","standard","2","73","LP","30","159.167","NaN","159.619","0.452","NaN","0","210",NA
"144","R_1HqVpTbw3tyPrZY","standard","2","74","LP","2.15079707022835","160.62","NaN","161.118","0.498","NaN","0","210",NA
"145","R_1HqVpTbw3tyPrZY","standard","2","75","LP","1.25738905644119","162.133","163.396",NA,"2.278",NA,"0","210",NA
"146","R_1HqVpTbw3tyPrZY","standard","2","76","LP","19.8235243429556","165.425","NaN","165.431","0.006","NaN","0","210",NA
"147","R_1HqVpTbw3tyPrZY","standard","2","77","LP","5.5010771219302","166.438","NaN","167.638","1.2","NaN","0","210",NA
"148","R_1HqVpTbw3tyPrZY","standard","2","78","LP","0.661783713916415","168.643","NaN","168.894","0.251","NaN","0","210",NA
"149","R_1HqVpTbw3tyPrZY","standard","2","79","LP","8.51632916846187","169.906","NaN","170.152","0.246","NaN","0","210",NA
"150","R_1HqVpTbw3tyPrZY","standard","2","80","LP","3.49090909090909","171.154","NaN","171.399","0.245","NaN","0","210",NA
"151","R_1HqVpTbw3tyPrZY","standard","2","81","LP","19.8235243429556","172.406","NaN","175.775","3.369","NaN","0","210",NA
"152","R_1HqVpTbw3tyPrZY","standard","2","82","LP","2.15079707022835","176.779","178.937","179.366","2.587","0.429","3","213",NA
"153","R_1HqVpTbw3tyPrZY","standard","2","83","LP","2.15079707022835","180.372","NaN","180.999","0.627","NaN","0","213",NA
"154","R_1HqVpTbw3tyPrZY","standard","2","84","LP","1.25738905644119","182.012","NaN","182.97","0.958","NaN","0","213",NA
"155","R_1HqVpTbw3tyPrZY","standard","2","85","LP","30","183.971","NaN","183.987","0.016","NaN","0","213",NA
"156","R_1HqVpTbw3tyPrZY","standard","2","86","LP","1.25738905644119","185","NaN","185.406","0.406","NaN","0","213",NA
"157","R_1HqVpTbw3tyPrZY","standard","2","87","LP","0.264713485566566","186.42","186.685",NA,"1.268",NA,"0","213",NA
"158","R_1HqVpTbw3tyPrZY","standard","2","88","LP","3.49090909090909","188.702","NaN","189.166","0.464","NaN","0","213",NA
"159","R_1HqVpTbw3tyPrZY","standard","2","89","LP","5.5010771219302","190.178","NaN","192.007","1.829","NaN","0","213",NA
"160","R_1HqVpTbw3tyPrZY","standard","2","90","LP","8.51632916846187","193.018","NaN","196.998","3.98","NaN","0","213",NA
"161","R_1HqVpTbw3tyPrZY","standard","2","91","LP","30","198.011","NaN","198.975","0.964","NaN","0","213",NA
"162","R_1HqVpTbw3tyPrZY","standard","2","92","LP","19.8235243429556","199.981","NaN","200.646","0.665","NaN","0","213",NA
"163","R_1HqVpTbw3tyPrZY","standard","2","93","LP","19.8235243429556","201.655","NaN","202.223","0.568","NaN","0","213",NA
"164","R_1HqVpTbw3tyPrZY","standard","2","94","LP","19.8235243429556","203.236","NaN","203.79","0.554","NaN","0","213",NA
"165","R_1HqVpTbw3tyPrZY","standard","2","95","LP","0.264713485566566","204.795","205.06",NA,"1.279",NA,"0","213",NA
"166","R_1HqVpTbw3tyPrZY","standard","2","96","LP","19.8235243429556","207.088","NaN","209.006","1.918","NaN","0","213",NA
"167","R_1HqVpTbw3tyPrZY","standard","2","97","LP","8.51632916846187","210.01","NaN","213.008","2.998","NaN","0","213",NA
"168","R_1HqVpTbw3tyPrZY","standard","2","98","LP","3.49090909090909","214.009","NaN","216.844","2.835","NaN","0","213",NA
"169","R_1HqVpTbw3tyPrZY","standard","2","99","LP","13.0392072382594","217.851","NaN","219.111","1.26","NaN","0","213",NA
"170","R_1HqVpTbw3tyPrZY","standard","2","100","LP","8.51632916846187","220.118","NaN","222.27","2.152","NaN","0","213",NA
"171","R_1HqVpTbw3tyPrZY","standard","2","101","LP","1.25738905644119","223.272","224.536",NA,"2.265",NA,"0","213",NA
"172","R_1HqVpTbw3tyPrZY","standard","2","102","LP","19.8235243429556","226.551","NaN","229.078","2.527","NaN","0","213",NA
"173","R_1HqVpTbw3tyPrZY","standard","2","103","LP","0.264713485566566","230.085","230.352",NA,"1.281",NA,"0","213",NA
"174","R_1HqVpTbw3tyPrZY","standard","2","104","LP","13.0392072382594","232.38","NaN","233.27","0.89","NaN","0","213",NA
"175","R_1HqVpTbw3tyPrZY","standard","2","105","LP","0.661783713916415","234.271","234.942",NA,"1.672",NA,"0","213",NA
"176","R_1HqVpTbw3tyPrZY","standard","2","106","LP","2.15079707022835","236.947","NaN","237.383","0.436","NaN","0","213",NA
"177","R_1HqVpTbw3tyPrZY","standard","2","107","LP","13.0392072382594","238.398","NaN","240.702","2.304","NaN","0","213",NA
"178","R_1HqVpTbw3tyPrZY","standard","2","108","LP","8.51632916846187","241.705","NaN","247.022","5.317","NaN","0","213",NA
"179","R_1HqVpTbw3tyPrZY","standard","2","109","LP","2.15079707022835","248.027","NaN","250.094","2.067","NaN","0","213",NA
"180","R_1HqVpTbw3tyPrZY","standard","2","110","LP","1.25738905644119","251.1","252.364","253.15","2.05","0.786","3","216",NA
"181","R_1HqVpTbw3tyPrZY","standard","2","111","LP","13.0392072382594","254.164","NaN","254.854","0.69","NaN","0","216",NA
"182","R_1HqVpTbw3tyPrZY","standard","2","112","LP","3.49090909090909","255.864","259.363",NA,"4.514",NA,"0","216",NA
"183","R_1HqVpTbw3tyPrZY","standard","2","113","LP","3.49090909090909","261.392","NaN","261.534","0.142","NaN","0","216",NA
"184","R_1HqVpTbw3tyPrZY","standard","2","114","LP","8.51632916846187","262.546","NaN","263.006","0.46","NaN","0","216",NA
"185","R_1HqVpTbw3tyPrZY","standard","2","115","LP","3.49090909090909","264.017","NaN","266.687","2.67","NaN","0","216",NA
"186","R_1HqVpTbw3tyPrZY","standard","2","116","LP","30","267.689","NaN","270.334","2.645","NaN","0","216",NA
"187","R_1HqVpTbw3tyPrZY","standard","2","117","LP","0.264713485566566","271.344","271.609",NA,"1.268",NA,"0","216",NA
"188","R_1HqVpTbw3tyPrZY","standard","2","118","LP","0.264713485566566","273.626","273.891","274.611","0.985","0.72","3","219",NA
"189","R_1HqVpTbw3tyPrZY","standard","2","119","LP","1.25738905644119","275.623","NaN","276.126","0.503","NaN","0","219",NA
"190","R_1HqVpTbw3tyPrZY","standard","2","120","LP","30","277.136","NaN","280.454","3.318","NaN","0","219",NA
"191","R_1HqVpTbw3tyPrZY","standard","2","121","LP","5.5010771219302","281.457","NaN","282.814","1.357","NaN","0","219",NA
"192","R_1HqVpTbw3tyPrZY","standard","2","122","LP","5.5010771219302","283.82","NaN","285.007","1.187","NaN","0","219",NA
"193","R_1HqVpTbw3tyPrZY","standard","2","123","LP","5.5010771219302","286.009","NaN","287.494","1.485","NaN","0","219",NA
"194","R_1HqVpTbw3tyPrZY","standard","2","124","LP","2.15079707022835","288.505","NaN","289.078","0.573","NaN","0","219",NA
"195","R_1HqVpTbw3tyPrZY","standard","2","125","LP","3.49090909090909","290.085","NaN","291.854","1.769","NaN","0","219",NA
"196","R_1HqVpTbw3tyPrZY","standard","2","126","LP","19.8235243429556","292.867","NaN","295.079","2.212","NaN","0","219",NA
"197","R_1HqVpTbw3tyPrZY","standard","2","127","LP","0.661783713916415","296.09","296.76","297.07","0.98","0.31","3","222",NA
"198","R_1HqVpTbw3tyPrZY","standard","2","128","LP","8.51632916846187","298.072","NaN","302.582","4.51","NaN","0","222",NA
"199","R_1HqVpTbw3tyPrZY","standard","2","129","LP","5.5010771219302","303.592","NaN","306.934","3.342","NaN","0","222",NA
"200","R_1HqVpTbw3tyPrZY","standard","2","130","LP","0.264713485566566","307.942","308.208",NA,"1.279",NA,"0","222",NA
"201","R_1HqVpTbw3tyPrZY","standard","2","131","LP","1.25738905644119","310.235","NaN","310.742","0.507","NaN","0","222",NA
"202","R_1HqVpTbw3tyPrZY","standard","2","132","LP","19.8235243429556","311.749","NaN","316.103","4.354","NaN","0","222",NA
"203","R_1HqVpTbw3tyPrZY","standard","2","133","LP","13.0392072382594","317.115","NaN","321.086","3.971","NaN","0","222",NA
"204","R_1HqVpTbw3tyPrZY","standard","2","134","LP","19.8235243429556","322.101","NaN","325.671","3.57","NaN","0","222",NA
"205","R_1HqVpTbw3tyPrZY","standard","2","135","LP","8.51632916846187","326.681","NaN","329.774","3.093","NaN","0","222",NA
"206","R_1HqVpTbw3tyPrZY","standard","2","136","LP","3.49090909090909","330.783","NaN","331.638","0.855","NaN","0","222",NA
"207","R_1HqVpTbw3tyPrZY","standard","2","137","LP","0.264713485566566","332.639","332.905","332.931","0.292","0.026","3","225",NA
"208","R_1HqVpTbw3tyPrZY","standard","2","138","LP","30","333.934","NaN","337.086","3.152","NaN","0","225",NA
"209","R_1HqVpTbw3tyPrZY","standard","2","139","LP","19.8235243429556","338.087","NaN","341.081","2.994","NaN","0","225",NA
"210","R_1HqVpTbw3tyPrZY","standard","2","140","LP","19.8235243429556","342.083","NaN","343.086","1.003","NaN","0","225",NA
"211","R_1HqVpTbw3tyPrZY","standard","2","141","LP","0.264713485566566","344.095","344.36","345.208","1.113","0.848","3","228",NA
"212","R_1HqVpTbw3tyPrZY","standard","2","142","LP","5.5010771219302","346.216","NaN","346.798","0.582","NaN","0","228",NA
"213","R_1HqVpTbw3tyPrZY","standard","2","143","LP","5.5010771219302","347.808","NaN","348.965","1.157","NaN","0","228",NA
"214","R_1HqVpTbw3tyPrZY","standard","2","144","LP","13.0392072382594","349.98","NaN","351.438","1.458","NaN","0","228",NA
"215","R_1HqVpTbw3tyPrZY","standard","2","145","LP","0.264713485566566","352.45","352.715","353.374","0.924","0.659","3","231",NA
"216","R_1HqVpTbw3tyPrZY","standard","2","146","LP","2.15079707022835","354.384","NaN","356.158","1.774","NaN","0","231",NA
"217","R_1HqVpTbw3tyPrZY","standard","2","147","LP","5.5010771219302","357.161","NaN","361.746","4.585","NaN","0","231",NA
"218","R_1HqVpTbw3tyPrZY","standard","2","148","LP","30","362.748","NaN","365.607","2.859","NaN","0","231",NA
"219","R_1HqVpTbw3tyPrZY","standard","2","149","LP","30","366.62","NaN","368.814","2.194","NaN","0","231",NA
"220","R_1HqVpTbw3tyPrZY","standard","2","150","LP","5.5010771219302","369.826","NaN","373.422","3.596","NaN","0","231",NA
"221","R_1HqVpTbw3tyPrZY","standard","2","151","LP","13.0392072382594","374.422","NaN","377.489","3.067","NaN","0","231",NA
"222","R_1HqVpTbw3tyPrZY","standard","2","152","LP","19.8235243429556","378.497","NaN","379.111","0.614","NaN","0","231",NA
"223","R_1HqVpTbw3tyPrZY","standard","2","153","LP","8.51632916846187","380.121","NaN","380.502","0.381","NaN","0","231",NA
"224","R_1HqVpTbw3tyPrZY","standard","2","154","LP","0.264713485566566","381.516","381.782",NA,"1.268",NA,"0","231",NA
"225","R_1HqVpTbw3tyPrZY","standard","2","155","LP","3.49090909090909","383.798","387.302",NA,"4.519",NA,"0","231",NA
"226","R_1HqVpTbw3tyPrZY","standard","2","156","LP","19.8235243429556","389.331","NaN","394.15","4.819","NaN","0","231",NA
"227","R_1HqVpTbw3tyPrZY","standard","2","157","LP","30","395.157","NaN","399.133","3.976","NaN","0","231",NA
"228","R_1HqVpTbw3tyPrZY","standard","2","158","LP","0.264713485566566","400.14","400.418",NA,"1.292",NA,"0","231",NA
"229","R_1HqVpTbw3tyPrZY","standard","2","159","LP","3.49090909090909","402.447","NaN","404.918","2.471","NaN","0","231",NA
"230","R_1HqVpTbw3tyPrZY","standard","2","160","LP","1.25738905644119","405.925","407.189",NA,"2.267",NA,"0","231",NA
"231","R_1HqVpTbw3tyPrZY","standard","2","161","LP","5.5010771219302","409.207","NaN","409.358","0.151","NaN","0","231",NA
"232","R_1HqVpTbw3tyPrZY","standard","2","162","LP","0.661783713916415","410.365","411.036","411.094","0.729","0.058","3","234",NA
"233","R_1HqVpTbw3tyPrZY","standard","2","163","LP","2.15079707022835","412.097","414.249",NA,"3.166",NA,"0","234",NA
"234","R_1HqVpTbw3tyPrZY","standard","2","164","LP","0.661783713916415","416.265","416.935",NA,"1.685",NA,"0","234",NA
"235","R_1HqVpTbw3tyPrZY","standard","2","165","LP","2.15079707022835","418.963","NaN","419.974","1.011","NaN","0","234",NA
"236","R_1HqVpTbw3tyPrZY","standard","2","166","LP","13.0392072382594","420.976","NaN","426.11","5.134","NaN","0","234",NA
"237","R_1HqVpTbw3tyPrZY","standard","2","167","LP","0.661783713916415","427.114","427.784",NA,"1.684",NA,"0","234",NA
"238","R_1HqVpTbw3tyPrZY","standard","2","168","LP","8.51632916846187","429.813","NaN","430.989","1.176","NaN","0","234",NA
"239","R_1HqVpTbw3tyPrZY","standard","2","169","LP","3.49090909090909","431.996","435.496",NA,"4.514",NA,"0","234",NA
"240","R_1HqVpTbw3tyPrZY","standard","2","170","LP","1.25738905644119","437.51","438.768","439.118","1.608","0.35","3","237",NA
"241","R_1HqVpTbw3tyPrZY","standard","2","171","LP","19.8235243429556","440.126","NaN","441.958","1.832","NaN","0","237",NA
"242","R_1HqVpTbw3tyPrZY","standard","2","172","LP","19.8235243429556","442.966","NaN","455.017","12.051","NaN","0","237",NA
"243","R_1HqVpTbw3tyPrZY","standard","2","173","LP","0.661783713916415","456.029","456.704",NA,"1.689",NA,"0","237",NA
"244","R_1HqVpTbw3tyPrZY","standard","2","174","LP","5.5010771219302","458.721","NaN","461.044","2.323","NaN","0","237",NA
"245","R_1HqVpTbw3tyPrZY","standard","2","175","LP","13.0392072382594","462.048","475.092",NA,"14.058",NA,"0","237",NA
"246","R_1HqVpTbw3tyPrZY","standard","2","176","LP","3.49090909090909","477.12","NaN","477.704","0.584","NaN","0","237",NA
"247","R_1HqVpTbw3tyPrZY","standard","2","177","LP","3.49090909090909","478.711","NaN","479.11","0.399","NaN","0","237",NA
"248","R_1HqVpTbw3tyPrZY","standard","2","178","LP","5.5010771219302","480.115","NaN","484.942","4.827","NaN","0","237",NA
"249","R_1HqVpTbw3tyPrZY","standard","2","179","LP","0.661783713916415","485.949","486.62",NA,"1.673",NA,"0","237",NA
"250","R_1HqVpTbw3tyPrZY","standard","2","180","LP","3.49090909090909","488.636","NaN","489.854","1.218","NaN","0","237",NA
"251","R_1HqVpTbw3tyPrZY","standard","2","181","LP","0.661783713916415","490.858","491.531",NA,"1.687",NA,"0","237",NA
"252","R_1HqVpTbw3tyPrZY","standard","2","182","LP","13.0392072382594","493.559","NaN","499.301","5.742","NaN","0","237",NA
"253","R_1HqVpTbw3tyPrZY","standard","2","183","LP","5.5010771219302","500.311","NaN","505.438","5.127","NaN","0","237",NA
"254","R_1HqVpTbw3tyPrZY","standard","2","184","LP","2.15079707022835","506.451","NaN","507.414","0.963","NaN","0","237",NA
"255","R_1HqVpTbw3tyPrZY","standard","2","185","LP","3.49090909090909","508.419","511.927",NA,"4.524",NA,"0","237",NA
"256","R_1HqVpTbw3tyPrZY","standard","2","186","LP","5.5010771219302","513.958","NaN","514.39","0.432","NaN","0","237",NA
"257","R_1HqVpTbw3tyPrZY","standard","2","187","LP","5.5010771219302","515.401","NaN","519.357","3.956","NaN","0","237",NA
"258","R_1HqVpTbw3tyPrZY","standard","2","188","LP","13.0392072382594","520.363","NaN","521.158","0.795","NaN","0","237",NA
"259","R_1HqVpTbw3tyPrZY","standard","2","189","LP","8.51632916846187","522.161","NaN","529.891","7.73","NaN","0","237",NA
"260","R_1HqVpTbw3tyPrZY","standard","2","190","LP","8.51632916846187","530.906","NaN","537.19","6.284","NaN","0","237",NA
"261","R_1HqVpTbw3tyPrZY","standard","2","191","LP","2.15079707022835","538.202","540.355",NA,"3.168",NA,"0","237",NA
"262","R_1HqVpTbw3tyPrZY","standard","2","192","LP","8.51632916846187","542.384","NaN","543.03","0.646","NaN","0","237",NA
"263","R_1HqVpTbw3tyPrZY","standard","2","193","LP","0.661783713916415","544.04","544.712",NA,"1.688",NA,"0","237",NA
"264","R_1HqVpTbw3tyPrZY","standard","2","194","LP","1.25738905644119","546.741","548.005","548.341","1.6","0.336","3","240",NA
"265","R_1HqVpTbw3tyPrZY","standard","2","195","LP","2.15079707022835","549.356","551.514","552.165","2.809","0.651","3","243",NA
"266","R_1HqVpTbw3tyPrZY","standard","2","196","LP","0.661783713916415","553.168","553.843","554.581","1.413","0.738","3","246",NA
"267","R_1HqVpTbw3tyPrZY","standard","2","197","LP","0.661783713916415","555.59","556.261","556.405","0.815","0.144","3","249",NA
"268","R_1HqVpTbw3tyPrZY","standard","2","198","LP","13.0392072382594","557.416","NaN","557.909","0.493","NaN","0","249",NA
"269","R_1HqVpTbw3tyPrZY","standard","2","199","LP","5.5010771219302","558.913","NaN","559.52","0.607","NaN","0","249",NA
"270","R_1HqVpTbw3tyPrZY","standard","2","200","LP","2.15079707022835","560.524","NaN","560.709","0.185","NaN","0","249",NA
"271","R_1HqVpTbw3tyPrZY","standard","2","201","LP","3.49090909090909","561.71","NaN","563.272","1.562","NaN","0","249",NA
"272","R_1HqVpTbw3tyPrZY","standard","2","202","LP","8.51632916846187","564.297","NaN","565.966","1.669","NaN","0","249",NA
"273","R_1HqVpTbw3tyPrZY","standard","2","203","LP","0.264713485566566","566.973","567.238",NA,"1.279",NA,"0","249",NA
"274","R_1HqVpTbw3tyPrZY","standard","2","204","LP","13.0392072382594","569.266","NaN","569.886","0.62","NaN","0","249",NA
"275","R_1HqVpTbw3tyPrZY","standard","2","205","LP","3.49090909090909","570.892","NaN","571.47","0.578","NaN","0","249",NA
"276","R_1HqVpTbw3tyPrZY","standard","2","206","LP","0.661783713916415","572.483","573.154","573.244","0.761","0.09","3","252",NA
"277","R_1HqVpTbw3tyPrZY","standard","2","207","LP","5.5010771219302","574.246","NaN","575.045","0.799","NaN","0","252",NA
"278","R_1HqVpTbw3tyPrZY","standard","2","208","LP","5.5010771219302","576.058","NaN","578.478","2.42","NaN","0","252",NA
"279","R_1HqVpTbw3tyPrZY","standard","2","209","LP","0.661783713916415","579.49","NaN","579.966","0.476","NaN","0","252",NA
"280","R_1HqVpTbw3tyPrZY","standard","2","210","LP","0.264713485566566","580.977","581.242",NA,"1.279",NA,"0","252",NA
"281","R_1HqVpTbw3tyPrZY","standard","2","211","LP","8.51632916846187","583.27","NaN","583.741","0.471","NaN","0","252",NA
"282","R_1HqVpTbw3tyPrZY","standard","2","212","LP","19.8235243429556","584.752","NaN","584.815","0.063","NaN","0","252",NA
"283","R_1HqVpTbw3tyPrZY","standard","2","213","LP","0.264713485566566","585.828","586.094","586.379","0.551","0.285","3","255",NA
"284","R_1HqVpTbw3tyPrZY","standard","2","214","LP","19.8235243429556","587.388","NaN","587.645","0.257","NaN","0","255",NA
"285","R_1HqVpTbw3tyPrZY","standard","2","215","LP","30","588.652","NaN","591.463","2.811","NaN","0","255",NA
"286","R_1HqVpTbw3tyPrZY","standard","2","216","LP","13.0392072382594","592.475","NaN","595.774","3.299","NaN","0","255",NA
"287","R_1HqVpTbw3tyPrZY","standard","2","217","LP","30","596.786","NaN","597.326","0.54","NaN","0","255",NA
"288","R_1HqVpTbw3tyPrZY","standard","2","218","LP","0.264713485566566","598.33","598.596",NA,"1.267",NA,"0","255",NA
