"","subject_id","condition","n_block","n_trialIdx","f_timing_condition","n_scheduled_delay","n_trial_start_time","n_rewarded_time_fin","n_sell_time_fin","n_time_waited_fin","RT_fin","n_trial_earnings_fin","n_total_earnings_fin","keypress_times"
"1","R_1IFe3SVSebrVVwA","standard","1","1","HP","20","0.002","20.031","NA","21.044","NA","0","0","c(""3391"", ""5041"", ""12875"", ""15949"", ""16175"")"
"2","R_1IFe3SVSebrVVwA","standard","1","2","HP","18","22.031","40.059","40.127","18.096","0.068","3","3","c(""429"", ""1623"", ""3310"", ""3517"", ""3797"", ""4125"", ""4415"", ""5060"", ""5230"", ""5423"", ""5591"", ""5730"", ""5901"", ""6030"", ""6191"", ""6342"", ""6493"", ""6661"", ""6822"", ""6961"", ""7185"", ""7360"", ""7678"", ""7893"", ""8094"", ""8544"", ""8789"", ""9029"", ""9329"", ""9917"", ""10321"", ""10546"", ""10903"", ""12183"", ""13222"", ""14915"", ""16708"")"
"3","R_1IFe3SVSebrVVwA","standard","1","3","HP","8","41.135","49.156","49.418","8.283","0.262","3","3","c(""124"", ""325"", ""626"", ""856"", ""1142"", ""1500"", ""3326"", ""3726"", ""4257"", ""4381"", ""4697"", ""4939"", ""5240"", ""5524"", ""5857"", ""6188"", ""6500"", ""6795"", ""7108"", ""7457"", ""7824"")"
"4","R_1IFe3SVSebrVVwA","standard","1","4","HP","4","50.424","54.442","54.659","4.235","0.217","3","3","c(""137"", ""392"", ""652"", ""966"", ""1183"", ""1453"", ""1736"", ""2105"", ""2767"", ""3289"", ""3551"", ""3952"")"
"5","R_1IFe3SVSebrVVwA","standard","1","5","HP","6","55.676","61.701","61.705","6.029","0.004","3","3","c(""244"", ""679"", ""951"", ""1179"", ""1399"", ""1638"", ""1877"", ""2100"", ""2357"", ""2601"", ""2899"", ""3253"", ""3484"", ""3672"", ""3999"", ""4299"", ""4614"", ""4859"", ""5167"", ""5459"", ""5715"")"
"6","R_1IFe3SVSebrVVwA","standard","1","6","HP","8","62.713","70.733","70.831","8.118","0.098","3","3","c(""119"", ""363"", ""646"", ""931"", ""1232"", ""1443"", ""1762"", ""2015"", ""2279"", ""2578"", ""3847"", ""3866"", ""3878"", ""4309"", ""4407"", ""4626"", ""4847"", ""5209"", ""5445"", ""5713"", ""6063"", ""6320"", ""6600"", ""6908"", ""7197"", ""7509"", ""7837"")"
"7","R_1IFe3SVSebrVVwA","standard","1","7","HP","6","71.831","77.847","77.925","6.094","0.078","3","3","c(""175"", ""460"", ""759"", ""1027"", ""1343"", ""1645"", ""1921"", ""2215"", ""2617"", ""3130"", ""3660"", ""3993"", ""4375"", ""4974"", ""5260"", ""5518"", ""5815"")"
"8","R_1IFe3SVSebrVVwA","standard","1","8","HP","14","78.927","92.949","NA","15.049","NA","0","0","c(""183"", ""479"", ""831"", ""1263"", ""2031"", ""2279"", ""2531"", ""2728"", ""4918"", ""4925"", ""4931"", ""4935"", ""4942"", ""4943"", ""4944"", ""4945"", ""5432"", ""5807"", ""6078"", ""6343"", ""6586"", ""7878"", ""8187"")"
"9","R_1IFe3SVSebrVVwA","standard","1","9","HP","8","94.943","102.951","NA","9.012","NA","0","0","2230"
"10","R_1IFe3SVSebrVVwA","standard","1","10","HP","12","104.958","116.98","117.372","12.414","0.392","3","3","c(""1868"", ""11194"", ""11210"", ""11217"", ""11222"", ""11226"", ""11228"", ""11229"", ""11230"", ""11231"", ""11234"", ""11236"", ""11239"", ""11659"")"
"11","R_1IFe3SVSebrVVwA","standard","1","11","HP","10","118.395","128.416","128.431","10.036","0.015","3","3","c(""640"", ""2434"", ""3408"", ""4761"", ""5626"", ""6148"", ""6534"", ""6870"", ""7678"", ""7928"", ""8961"", ""9578"")"
"12","R_1IFe3SVSebrVVwA","standard","1","12","HP","18","129.439","147.463","147.667","18.228","0.204","3","3","c(""349"", ""849"", ""1548"", ""1734"", ""2483"", ""2749"", ""3117"", ""3427"", ""3616"", ""4234"", ""4422"", ""4734"", ""5438"", ""5690"", ""5951"", ""6411"", ""6618"", ""7991"", ""8423"", ""8598"", ""8887"", ""9117"", ""9517"", ""10112"", ""10385"", ""10633"", ""10901"", ""11165"", ""11406"", ""11680"", ""11965"", ""12213"", ""12511"", ""12765"", ""13014"", ""13268"", ""13549"", ""13809"", ""14048"", ""14309"", ""14596"", ""14848"", ""15103"", ""15434"", ""15732"", ""16116"", ""16448"", ""16845"", ""17188"", ""17511"", ""17964"")"
"13","R_1IFe3SVSebrVVwA","standard","1","13","HP","16","148.671","164.672","164.676","16.005","0.004","3","3","c(""215"", ""417"", ""700"", ""956"", ""1253"", ""1532"", ""1788"", ""2017"", ""2317"", ""2572"", ""2852"", ""3284"", ""4117"", ""4441"", ""4700"", ""4963"", ""5489"", ""5761"", ""5995"", ""6296"", ""6502"", ""6757"", ""7001"", ""7269"", ""7558"", ""7803"", ""8102"", ""8318"", ""8579"", ""8800"", ""9001"", ""9301"", ""9595"", ""9884"", ""10165"", ""10799"", ""10809"", ""10884"", ""11279"", ""12184"", ""12500"", ""12718"", ""12984"", ""13252"", ""13500"", ""13716"", ""13915"", ""14146"", ""14386"", ""14631"", ""14817"", ""15083"", ""15300"", ""15539"", ""15782"")"
"14","R_1IFe3SVSebrVVwA","standard","1","14","HP","2","165.688","164.697","164.902","16.231","0.205","3","6","c(""67"", ""283"", ""558"", ""799"", ""1048"", ""1266"", ""1538"", ""1762"", ""2000"")"
"15","R_1IFe3SVSebrVVwA","standard","1","15","HP","2","168.935","167.704","167.932","2.244","0.228","3","3","c(""205"", ""437"", ""684"", ""909"", ""1138"", ""1354"", ""1620"", ""1838"")"
"16","R_1IFe3SVSebrVVwA","standard","1","16","HP","8","172.027","170.95","171.017","2.082","0.067","3","3","c(""62"", ""298"", ""510"", ""727"", ""960"", ""1189"", ""1408"", ""1631"", ""1845"", ""2077"", ""2320"", ""2529"", ""2759"", ""2962"", ""3179"", ""3443"", ""3638"", ""3860"", ""4061"", ""4302"", ""4504"", ""4714"", ""4924"", ""5117"", ""5312"", ""5501"", ""5735"", ""5946"", ""6163"", ""6360"", ""6601"", ""6843"", ""7077"", ""7277"", ""7509"", ""7744"", ""7993"")"
"17","R_1IFe3SVSebrVVwA","standard","1","17","HP","4","181.503","180.046","180.488","8.461","0.442","3","3","c(""300"", ""470"", ""985"", ""1012"", ""1327"")"
"18","R_1IFe3SVSebrVVwA","standard","1","18","HP","4","187.532","185.52","NA","5.025","NA","0","0",""
"19","R_1IFe3SVSebrVVwA","standard","1","19","HP","16","193.545","185.52","NA","5.031","NA","0","0",""
"20","R_1IFe3SVSebrVVwA","standard","1","20","HP","10","211.568","221.595","NA","11.13","NA","0","0","c(""1033"", ""1045"", ""1305"", ""1325"", ""1334"", ""1348"", ""1358"", ""1603"", ""1622"", ""1627"", ""1642"", ""1667"", ""1675"", ""1683"", ""1694"", ""1857"", ""1934"", ""1939"", ""1949"", ""1971"", ""1999"", ""2009"", ""2039"", ""2050"", ""2068"", ""2076"", ""2082"", ""2092"", ""2099"", ""2118"", ""2128"", ""2233"", ""2257"", ""2292"", ""2302"", ""2351"", ""2418"", ""2439"", ""2456"", ""2520"", ""2542"", ""2550"", ""2634"", ""2649"", ""2655"", ""2664"", ""2667"", ""2675"", ""2698"", ""2705"", ""2710"", ""2737"", ""2762"", ""2772"", ""2794"", ""2815"", ""2826"", ""2851"", ""2857"", ""2862"", ""2875"", ""2882"", ""2901"", 
""2906"", ""2912"", ""2919"", ""2927"", ""2933"", ""2942"", ""2949"", ""2959"", ""3006"", ""3015"", ""3048"", ""3058"", ""3070"", ""3077"", ""3083"", ""3101"", ""3142"", ""3150"", ""3159"", ""3169"", ""3212"", ""3223"", ""3230"", ""3238"", ""7433"", ""7618"", ""7833"", ""8087"", ""8333"", ""8586"", ""8853"", ""9068"", ""9317"", ""9534"", ""9819"")"
"21","R_1IFe3SVSebrVVwA","standard","1","21","HP","2","223.602","221.595","NA","11.131","NA","0","0","c(""252"", ""386"")"
"22","R_1IFe3SVSebrVVwA","standard","1","22","HP","12","227.623","221.595","NA","11.133","NA","0","0","c(""11612"", ""11818"")"
"23","R_1IFe3SVSebrVVwA","standard","1","23","HP","8","240.768","276.334","NA","11.02","NA","0","0","c(""122"", ""273"", ""917"", ""1155"", ""1392"", ""1713"", ""1817"", ""2101"", ""7102"", ""7733"")"
"24","R_1IFe3SVSebrVVwA","standard","1","24","HP","4","249.824","382.29","NA","7.024","NA","0","0","c(""132"", ""347"", ""596"", ""840"", ""1179"", ""1462"", ""1794"", ""2105"", ""2416"", ""3047"", ""3895"")"
"25","R_1IFe3SVSebrVVwA","standard","1","25","HP","10","255.15","692.947","NA","9.02","NA","0","0","c(""81"", ""673"", ""1281"", ""2352"", ""2800"", ""3513"", ""4016"", ""4690"", ""4953"", ""5182"", ""5580"", ""5770"", ""6024"", ""6514"", ""7080"", ""7635"", ""7835"", ""8034"", ""8219"", ""8420"", ""8635"", ""9074"", ""9880"")"
"26","R_1IFe3SVSebrVVwA","standard","1","26","HP","10","266.322","817.14","NA","21.02","NA","0","0","c(""180"", ""464"", ""747"", ""938"", ""1179"", ""1418"")"
"27","R_1IFe3SVSebrVVwA","standard","1","27","HP","10","278.345","825.163","NA","7.03","NA","0","0",""
"28","R_1IFe3SVSebrVVwA","standard","1","28","HP","16","292.278","831.213","NA","5.02","NA","0","0",""
"29","R_1IFe3SVSebrVVwA","standard","1","29","HP","4","310.316","839.231","NA","7.015","NA","0","0",""
"30","R_1IFe3SVSebrVVwA","standard","1","30","HP","14","316.332","853.252","NA","13.017","NA","0","0",""
"31","R_1IFe3SVSebrVVwA","standard","1","31","HP","14","332.355","857.274","858.165","2.901","0.891","3","3",""
"32","R_1IFe3SVSebrVVwA","standard","1","32","HP","8","348.399","879.218","879.595","20.415","0.377","3","3",""
"33","R_1IFe3SVSebrVVwA","standard","1","33","HP","8","358.416","NA","NA","NA","NA","NA","NA",""
"34","R_1IFe3SVSebrVVwA","standard","1","34","HP","2","370.276","NA","NA","NA","NA","NA","NA",""
"35","R_1IFe3SVSebrVVwA","standard","1","35","HP","6","376.275","NA","NA","NA","NA","NA","NA",""
"36","R_1IFe3SVSebrVVwA","standard","1","36","HP","4","384.313","NA","NA","NA","NA","NA","NA",""
"37","R_1IFe3SVSebrVVwA","standard","1","37","HP","6","390.339","NA","NA","NA","NA","NA","NA",""
"38","R_1IFe3SVSebrVVwA","standard","1","38","HP","12","398.363","NA","NA","NA","NA","NA","NA",""
"39","R_1IFe3SVSebrVVwA","standard","1","39","HP","8","412.411","NA","NA","NA","NA","NA","NA",""
"40","R_1IFe3SVSebrVVwA","standard","1","40","HP","20","422.425","NA","NA","NA","NA","NA","NA",""
"41","R_1IFe3SVSebrVVwA","standard","1","41","HP","20","444.441","NA","NA","NA","NA","NA","NA",""
"42","R_1IFe3SVSebrVVwA","standard","1","42","HP","8","466.465","NA","NA","NA","NA","NA","NA",""
"43","R_1IFe3SVSebrVVwA","standard","1","43","HP","8","476.511","NA","NA","NA","NA","NA","NA",""
"44","R_1IFe3SVSebrVVwA","standard","1","44","HP","12","486.522","NA","NA","NA","NA","NA","NA",""
"45","R_1IFe3SVSebrVVwA","standard","1","45","HP","6","500.532","NA","NA","NA","NA","NA","NA",""
"46","R_1IFe3SVSebrVVwA","standard","1","46","HP","8","508.555","NA","NA","NA","NA","NA","NA",""
"47","R_1IFe3SVSebrVVwA","standard","1","47","HP","14","518.607","NA","NA","NA","NA","NA","NA",""
"48","R_1IFe3SVSebrVVwA","standard","1","48","HP","2","534.635","NA","NA","NA","NA","NA","NA",""
"49","R_1IFe3SVSebrVVwA","standard","1","49","HP","4","538.651","NA","NA","NA","NA","NA","NA",""
"50","R_1IFe3SVSebrVVwA","standard","1","50","HP","2","544.703","NA","NA","NA","NA","NA","NA",""
"51","R_1IFe3SVSebrVVwA","standard","1","51","HP","12","548.722","NA","NA","NA","NA","NA","NA",""
"52","R_1IFe3SVSebrVVwA","standard","1","52","HP","18","562.739","NA","NA","NA","NA","NA","NA",""
"53","R_1IFe3SVSebrVVwA","standard","1","53","HP","18","582.773","NA","NA","NA","NA","NA","NA",""
"54","R_1IFe3SVSebrVVwA","standard","1","54","HP","16","602.825","NA","NA","NA","NA","NA","NA",""
"55","R_1IFe3SVSebrVVwA","standard","1","55","HP","16","620.84","NA","NA","NA","NA","NA","NA",""
"56","R_1IFe3SVSebrVVwA","standard","1","56","HP","10","638.852","NA","NA","NA","NA","NA","NA",""
"57","R_1IFe3SVSebrVVwA","standard","1","57","HP","18","650.888","NA","NA","NA","NA","NA","NA",""
"58","R_1IFe3SVSebrVVwA","standard","1","58","HP","12","670.923","NA","NA","NA","NA","NA","NA",""
"59","R_1IFe3SVSebrVVwA","standard","1","59","HP","8","684.938","NA","NA","NA","NA","NA","NA",""
"60","R_1IFe3SVSebrVVwA","standard","1","60","HP","18","694.962","NA","NA","NA","NA","NA","NA",""
"61","R_1IFe3SVSebrVVwA","standard","1","61","HP","20","715.019","NA","NA","NA","NA","NA","NA",""
"62","R_1IFe3SVSebrVVwA","standard","1","62","HP","6","737.036","NA","NA","NA","NA","NA","NA",""
"63","R_1IFe3SVSebrVVwA","standard","1","63","HP","20","745.062","NA","NA","NA","NA","NA","NA",""
"64","R_1IFe3SVSebrVVwA","standard","1","64","HP","18","767.084","NA","NA","NA","NA","NA","NA",""
"65","R_1IFe3SVSebrVVwA","standard","1","65","HP","8","787.121","NA","NA","NA","NA","NA","NA",""
"66","R_1IFe3SVSebrVVwA","standard","1","66","HP","20","797.131","NA","NA","NA","NA","NA","NA",""
"67","R_1IFe3SVSebrVVwA","standard","1","67","HP","6","819.155","NA","NA","NA","NA","NA","NA",""
"68","R_1IFe3SVSebrVVwA","standard","1","68","HP","4","827.198","NA","NA","NA","NA","NA","NA",""
"69","R_1IFe3SVSebrVVwA","standard","1","69","HP","6","833.222","NA","NA","NA","NA","NA","NA",""
"70","R_1IFe3SVSebrVVwA","standard","1","70","HP","12","841.245","NA","NA","NA","NA","NA","NA",""
"71","R_1IFe3SVSebrVVwA","standard","1","71","HP","2","855.264","NA","NA","NA","NA","NA","NA","c(""1132"", ""1501"", ""1689"", ""1873"", ""2001"")"
"72","R_1IFe3SVSebrVVwA","standard","1","72","HP","20","859.18","NA","NA","NA","NA","NA","NA","c(""123"", ""438"", ""719"", ""1016"", ""1684"", ""3058"", ""3440"", ""3715"", ""3917"", ""4384"", ""4761"", ""5566"", ""5978"", ""7946"", ""8451"", ""8882"", ""10299"", ""10777"", ""11185"", ""11701"", ""12117"", ""12538"", ""12963"", ""13257"", ""13745"", ""14260"", ""14601"", ""15684"", ""16016"", ""16499"", ""16937"", ""17401"", ""17768"", ""18116"", ""18984"", ""19399"", ""19953"")"
"73","R_1IFe3SVSebrVVwA","standard","2","1","LP","0.661783713916415","0.001","0.672","1.671","1.67","0.999","3","6",NA
"74","R_1IFe3SVSebrVVwA","standard","2","2","LP","8.51632916846187","2.704","NaN","2.802","0.098","NaN","0","6",NA
"75","R_1IFe3SVSebrVVwA","standard","2","3","LP","13.0392072382594","3.815","NaN","3.94","0.125","NaN","0","6",NA
"76","R_1IFe3SVSebrVVwA","standard","2","4","LP","19.8235243429556","4.945","NaN","5.156","0.211","NaN","0","6",NA
"77","R_1IFe3SVSebrVVwA","standard","2","5","LP","19.8235243429556","6.187","NaN","6.287","0.1","NaN","0","6",NA
"78","R_1IFe3SVSebrVVwA","standard","2","6","LP","0.661783713916415","7.319","NaN","7.403","0.084","NaN","0","6",NA
"79","R_1IFe3SVSebrVVwA","standard","2","7","LP","3.49090909090909","8.411","NaN","8.523","0.112","NaN","0","6",NA
"80","R_1IFe3SVSebrVVwA","standard","2","8","LP","30","9.528","NaN","9.589","0.061","NaN","0","6",NA
"81","R_1IFe3SVSebrVVwA","standard","2","9","LP","1.25738905644119","10.602","NaN","10.745","0.143","NaN","0","6",NA
"82","R_1IFe3SVSebrVVwA","standard","2","10","LP","0.661783713916415","11.753","NaN","11.861","0.108","NaN","0","6",NA
"83","R_1IFe3SVSebrVVwA","standard","2","11","LP","1.25738905644119","12.864","14.122","14.486","1.622","0.364","3","9",NA
"84","R_1IFe3SVSebrVVwA","standard","2","12","LP","30","15.518","NaN","15.908","0.39","NaN","0","9",NA
"85","R_1IFe3SVSebrVVwA","standard","2","13","LP","5.5010771219302","16.921","22.425","23.133","6.212","0.708","3","12",NA
"86","R_1IFe3SVSebrVVwA","standard","2","14","LP","0.264713485566566","24.135","24.416","25.23","1.095","0.814","3","15",NA
"87","R_1IFe3SVSebrVVwA","standard","2","15","LP","13.0392072382594","26.231","39.284","39.91","13.679","0.626","3","18",NA
"88","R_1IFe3SVSebrVVwA","standard","2","16","LP","13.0392072382594","40.916","53.959","54.628","13.712","0.669","3","21",NA
"89","R_1IFe3SVSebrVVwA","standard","2","17","LP","3.49090909090909","55.63","59.12","59.964","4.334","0.844","3","24",NA
"90","R_1IFe3SVSebrVVwA","standard","2","18","LP","2.15079707022835","60.966","63.118","64.012","3.046","0.894","3","27",NA
"91","R_1IFe3SVSebrVVwA","standard","2","19","LP","8.51632916846187","65.015","73.534","74.234","9.219","0.7","3","30",NA
"92","R_1IFe3SVSebrVVwA","standard","2","20","LP","19.8235243429556","75.235","NaN","84.282","9.047","NaN","0","30",NA
"93","R_1IFe3SVSebrVVwA","standard","2","21","LP","2.15079707022835","85.287","87.446",NA,"3.171",NA,"0","30",NA
"94","R_1IFe3SVSebrVVwA","standard","2","22","LP","8.51632916846187","89.463","NaN","89.779","0.316","NaN","0","30",NA
"95","R_1IFe3SVSebrVVwA","standard","2","23","LP","0.661783713916415","90.797","91.463","91.519","0.722","0.056","3","33",NA
"96","R_1IFe3SVSebrVVwA","standard","2","24","LP","30","92.526","NaN","92.862","0.336","NaN","0","33",NA
"97","R_1IFe3SVSebrVVwA","standard","2","25","LP","5.5010771219302","93.866","NaN","94.236","0.37","NaN","0","33",NA
"98","R_1IFe3SVSebrVVwA","standard","2","26","LP","0.264713485566566","95.237","NaN","95.253","0.016","NaN","0","33",NA
"99","R_1IFe3SVSebrVVwA","standard","2","27","LP","0.661783713916415","96.261","NaN","96.589","0.328","NaN","0","33",NA
"100","R_1IFe3SVSebrVVwA","standard","2","28","LP","19.8235243429556","97.599","NaN","97.665","0.066","NaN","0","33",NA
"101","R_1IFe3SVSebrVVwA","standard","2","29","LP","8.51632916846187","98.682","NaN","98.819","0.137","NaN","0","33",NA
"102","R_1IFe3SVSebrVVwA","standard","2","30","LP","8.51632916846187","99.822","NaN","99.955","0.133","NaN","0","33",NA
"103","R_1IFe3SVSebrVVwA","standard","2","31","LP","5.5010771219302","100.957","NaN","101.086","0.129","NaN","0","33",NA
"104","R_1IFe3SVSebrVVwA","standard","2","32","LP","30","102.096","NaN","102.247","0.151","NaN","0","33",NA
"105","R_1IFe3SVSebrVVwA","standard","2","33","LP","0.264713485566566","103.253","NaN","103.419","0.166","NaN","0","33",NA
"106","R_1IFe3SVSebrVVwA","standard","2","34","LP","13.0392072382594","104.422","NaN","104.59","0.168","NaN","0","33",NA
"107","R_1IFe3SVSebrVVwA","standard","2","35","LP","0.264713485566566","105.598","NaN","105.684","0.086","NaN","0","33",NA
"108","R_1IFe3SVSebrVVwA","standard","2","36","LP","3.49090909090909","106.698","NaN","106.866","0.168","NaN","0","33",NA
"109","R_1IFe3SVSebrVVwA","standard","2","37","LP","2.15079707022835","107.881","NaN","107.89","0.009","NaN","0","33",NA
"110","R_1IFe3SVSebrVVwA","standard","2","38","LP","8.51632916846187","108.896","NaN","109.022","0.126","NaN","0","33",NA
"111","R_1IFe3SVSebrVVwA","standard","2","39","LP","8.51632916846187","110.03","118.549","119.345","9.315","0.796","3","36",NA
"112","R_1IFe3SVSebrVVwA","standard","2","40","LP","30","120.349","NaN","141.217","20.868","NaN","0","36",NA
"113","R_1IFe3SVSebrVVwA","standard","2","41","LP","8.51632916846187","142.222","NaN","144.178","1.956","NaN","0","36",NA
"114","R_1IFe3SVSebrVVwA","standard","2","42","LP","13.0392072382594","145.194","158.236","159.039","13.845","0.803","3","39",NA
"115","R_1IFe3SVSebrVVwA","standard","2","43","LP","13.0392072382594","160.045","NaN","166.292","6.247","NaN","0","39",NA
"116","R_1IFe3SVSebrVVwA","standard","2","44","LP","1.25738905644119","167.3","168.565",NA,"2.275",NA,"0","39",NA
"117","R_1IFe3SVSebrVVwA","standard","2","45","LP","0.661783713916415","170.58","171.244","172.214","1.634","0.97","3","42",NA
"118","R_1IFe3SVSebrVVwA","standard","2","46","LP","0.264713485566566","173.22","173.492","174.394","1.174","0.902","3","45",NA
"119","R_1IFe3SVSebrVVwA","standard","2","47","LP","19.8235243429556","175.397","195.229","196.034","20.637","0.805","3","48",NA
"120","R_1IFe3SVSebrVVwA","standard","2","48","LP","19.8235243429556","197.036","216.86","217.648","20.612","0.788","3","51",NA
"121","R_1IFe3SVSebrVVwA","standard","2","49","LP","5.5010771219302","218.652","224.156","224.934","6.282","0.778","3","54",NA
"122","R_1IFe3SVSebrVVwA","standard","2","50","LP","1.25738905644119","225.939","227.204",NA,"2.268",NA,"0","54",NA
"123","R_1IFe3SVSebrVVwA","standard","2","51","LP","19.8235243429556","229.208","NaN","234.065","4.857","NaN","0","54",NA
"124","R_1IFe3SVSebrVVwA","standard","2","52","LP","1.25738905644119","235.074","236.339",NA,"2.268",NA,"0","54",NA
"125","R_1IFe3SVSebrVVwA","standard","2","53","LP","2.15079707022835","238.347","240.506","241.35","3.003","0.844","3","57",NA
"126","R_1IFe3SVSebrVVwA","standard","2","54","LP","1.25738905644119","242.357","243.619","244.534","2.177","0.915","3","60",NA
"127","R_1IFe3SVSebrVVwA","standard","2","55","LP","3.49090909090909","245.539","249.035","249.873","4.334","0.838","3","63",NA
"128","R_1IFe3SVSebrVVwA","standard","2","56","LP","30","250.889","280.903","281.655","30.766","0.752","3","66",NA
"129","R_1IFe3SVSebrVVwA","standard","2","57","LP","8.51632916846187","282.672","291.202","292.016","9.344","0.814","3","69",NA
"130","R_1IFe3SVSebrVVwA","standard","2","58","LP","19.8235243429556","293.022","NaN","298","4.978","NaN","0","69",NA
"131","R_1IFe3SVSebrVVwA","standard","2","59","LP","5.5010771219302","299.02","304.523","305.335","6.315","0.812","3","72",NA
"132","R_1IFe3SVSebrVVwA","standard","2","60","LP","3.49090909090909","306.338","309.835","310.652","4.314","0.817","3","75",NA
"133","R_1IFe3SVSebrVVwA","standard","2","61","LP","0.264713485566566","311.659","311.93",NA,"1.271",NA,"0","75",NA
"134","R_1IFe3SVSebrVVwA","standard","2","62","LP","3.49090909090909","313.93","317.422","318.169","4.239","0.747","3","78",NA
"135","R_1IFe3SVSebrVVwA","standard","2","63","LP","0.264713485566566","319.2","319.467","320.316","1.116","0.849","3","81",NA
"136","R_1IFe3SVSebrVVwA","standard","2","64","LP","3.49090909090909","321.32","324.818","325.063","3.743","0.245","3","84",NA
"137","R_1IFe3SVSebrVVwA","standard","2","65","LP","2.15079707022835","326.066","NaN","326.085","0.019","NaN","0","84",NA
"138","R_1IFe3SVSebrVVwA","standard","2","66","LP","5.5010771219302","327.101","332.617","333.351","6.25","0.734","3","87",NA
"139","R_1IFe3SVSebrVVwA","standard","2","67","LP","1.25738905644119","334.383","335.641","336.489","2.106","0.848","3","90",NA
"140","R_1IFe3SVSebrVVwA","standard","2","68","LP","13.0392072382594","337.5","350.545",NA,"14.07",NA,"0","90",NA
"141","R_1IFe3SVSebrVVwA","standard","2","69","LP","1.25738905644119","352.582","353.842",NA,"2.269",NA,"0","90",NA
"142","R_1IFe3SVSebrVVwA","standard","2","70","LP","5.5010771219302","355.858","361.367",NA,"6.525",NA,"0","90",NA
"143","R_1IFe3SVSebrVVwA","standard","2","71","LP","5.5010771219302","363.386","368.9",NA,"6.517",NA,"0","90",NA
"144","R_1IFe3SVSebrVVwA","standard","2","72","LP","19.8235243429556","370.906","390.738","391.507","20.601","0.769","3","93",NA
"145","R_1IFe3SVSebrVVwA","standard","2","73","LP","1.25738905644119","392.514","393.78",NA,"2.286",NA,"0","93",NA
"146","R_1IFe3SVSebrVVwA","standard","2","74","LP","19.8235243429556","395.814","415.641","416.449","20.635","0.808","3","96",NA
"147","R_1IFe3SVSebrVVwA","standard","2","75","LP","8.51632916846187","417.46","425.981","426.82","9.36","0.839","3","99",NA
"148","R_1IFe3SVSebrVVwA","standard","2","76","LP","8.51632916846187","427.826","436.345",NA,"9.529",NA,"0","99",NA
"149","R_1IFe3SVSebrVVwA","standard","2","77","LP","0.264713485566566","438.362","438.631","439.564","1.202","0.933","3","102",NA
"150","R_1IFe3SVSebrVVwA","standard","2","78","LP","3.49090909090909","440.581","444.08","444.98","4.399","0.9","3","105",NA
"151","R_1IFe3SVSebrVVwA","standard","2","79","LP","0.661783713916415","445.995","446.679",NA,"1.701",NA,"0","105",NA
"152","R_1IFe3SVSebrVVwA","standard","2","80","LP","0.661783713916415","448.713","449.38","450.303","1.59","0.923","3","108",NA
"153","R_1IFe3SVSebrVVwA","standard","2","81","LP","1.25738905644119","451.311","452.582","453.368","2.057","0.786","3","111",NA
"154","R_1IFe3SVSebrVVwA","standard","2","82","LP","19.8235243429556","454.378","NaN","470.262","15.884","NaN","0","111",NA
"155","R_1IFe3SVSebrVVwA","standard","2","83","LP","1.25738905644119","471.278","472.537",NA,"2.266",NA,"0","111",NA
"156","R_1IFe3SVSebrVVwA","standard","2","84","LP","30","474.545","504.552","505.31","30.765","0.758","3","114",NA
"157","R_1IFe3SVSebrVVwA","standard","2","85","LP","19.8235243429556","506.314","526.144","526.96","20.646","0.816","3","117",NA
"158","R_1IFe3SVSebrVVwA","standard","2","86","LP","5.5010771219302","527.975","533.491","534.335","6.36","0.844","3","120",NA
"159","R_1IFe3SVSebrVVwA","standard","2","87","LP","1.25738905644119","535.345","536.607","537.427","2.082","0.82","3","123",NA
"160","R_1IFe3SVSebrVVwA","standard","2","88","LP","19.8235243429556","538.433","558.274","559.058","20.625","0.784","3","126",NA
"161","R_1IFe3SVSebrVVwA","standard","2","89","LP","2.15079707022835","560.074","562.225","563.09","3.016","0.865","3","129",NA
"162","R_1IFe3SVSebrVVwA","standard","2","90","LP","3.49090909090909","564.107","567.606",NA,"4.501",NA,"0","129",NA
