"","subject_id","condition","n_block","n_trialIdx","f_timing_condition","n_scheduled_delay","n_trial_start_time","n_rewarded_time_fin","n_sell_time_fin","n_time_waited_fin","RT_fin","n_trial_earnings_fin","n_total_earnings_fin","keypress_times"
"1","R_1ifk6NeVMFHGM61","standard","1","1","LP","3.49090909090909","0.001","3.506","3.837","3.836","0.331","3","3",""
"2","R_1ifk6NeVMFHGM61","standard","1","2","LP","13.0392072382594","4.844","17.895","18.174","13.33","0.279","3","6",""
"3","R_1ifk6NeVMFHGM61","standard","1","3","LP","19.8235243429556","19.18","39.015","39.341","20.161","0.326","3","9",""
"4","R_1ifk6NeVMFHGM61","standard","1","4","LP","19.8235243429556","40.354","60.18","60.558","20.204","0.378","3","12",""
"5","R_1ifk6NeVMFHGM61","standard","1","5","LP","5.5010771219302","61.567","67.075","67.501","5.934","0.426","3","15",""
"6","R_1ifk6NeVMFHGM61","standard","1","6","LP","1.25738905644119","68.513","69.774","70.317","1.804","0.543","3","18",""
"7","R_1ifk6NeVMFHGM61","standard","1","7","LP","0.264713485566566","71.332","71.604","72.021","0.689","0.417","3","21",""
"8","R_1ifk6NeVMFHGM61","standard","1","8","LP","30","73.024","103.027","103.389","30.365","0.362","3","24",""
"9","R_1ifk6NeVMFHGM61","standard","1","9","LP","30","104.41","134.412","134.878","30.468","0.466","3","24","28668"
"10","R_1ifk6NeVMFHGM61","standard","1","10","LP","30","135.892","165.915","166.278","30.386","0.363","3","27",""
"11","R_1ifk6NeVMFHGM61","standard","1","11","LP","19.8235243429556","167.284","187.108","187.574","20.29","0.466","3","30",""
"12","R_1ifk6NeVMFHGM61","standard","1","12","LP","19.8235243429556","188.583","208.422","208.814","20.231","0.392","3","33",""
"13","R_1ifk6NeVMFHGM61","standard","1","13","LP","3.49090909090909","209.824","213.329","213.846","4.022","0.517","3","36",""
"14","R_1ifk6NeVMFHGM61","standard","1","14","LP","2.15079707022835","214.858","217.019","217.422","2.564","0.403","3","39",""
"15","R_1ifk6NeVMFHGM61","standard","1","15","LP","1.25738905644119","218.431","219.701","220.174","1.743","0.473","3","42",""
"16","R_1ifk6NeVMFHGM61","standard","1","16","LP","30","221.18","251.202","251.559","30.379","0.357","3","45",""
"17","R_1ifk6NeVMFHGM61","standard","1","17","LP","1.25738905644119","252.57","253.828","254.398","1.828","0.57","3","48",""
"18","R_1ifk6NeVMFHGM61","standard","1","18","LP","0.661783713916415","255.404","256.069","256.446","1.042","0.377","3","51",""
"19","R_1ifk6NeVMFHGM61","standard","1","19","LP","1.25738905644119","257.452","258.709","259.086","1.634","0.377","3","54",""
"20","R_1ifk6NeVMFHGM61","standard","1","20","LP","19.8235243429556","260.096","279.932","280.382","20.286","0.45","3","57",""
"21","R_1ifk6NeVMFHGM61","standard","1","21","LP","1.25738905644119","281.388","282.652","283.062","1.674","0.41","3","60",""
"22","R_1ifk6NeVMFHGM61","standard","1","22","LP","2.15079707022835","284.067","286.226","287.038","2.971","0.812","3","63",""
"23","R_1ifk6NeVMFHGM61","standard","1","23","LP","3.49090909090909","288.048","291.548","291.935","3.887","0.387","3","66",""
"24","R_1ifk6NeVMFHGM61","standard","1","24","LP","8.51632916846187","292.947","301.477","301.878","8.931","0.401","3","69",""
"25","R_1ifk6NeVMFHGM61","standard","1","25","LP","30","302.894","332.901","333.336","30.442","0.435","3","72",""
"26","R_1ifk6NeVMFHGM61","standard","1","26","LP","3.49090909090909","334.339","337.842","338.343","4.004","0.501","3","75",""
"27","R_1ifk6NeVMFHGM61","standard","1","27","LP","0.661783713916415","339.344","340.017","340.487","1.143","0.47","3","78",""
"28","R_1ifk6NeVMFHGM61","standard","1","28","LP","30","341.498","371.504","371.943","30.445","0.439","3","81",""
"29","R_1ifk6NeVMFHGM61","standard","1","29","LP","8.51632916846187","372.952","381.476","381.895","8.943","0.419","3","84",""
"30","R_1ifk6NeVMFHGM61","standard","1","30","LP","13.0392072382594","382.906","395.948","396.287","13.381","0.339","3","87",""
"31","R_1ifk6NeVMFHGM61","standard","1","31","LP","13.0392072382594","397.301","410.348","410.911","13.61","0.563","3","90",""
"32","R_1ifk6NeVMFHGM61","standard","1","32","LP","0.661783713916415","411.917","412.587","413.063","1.146","0.476","3","93",""
"33","R_1ifk6NeVMFHGM61","standard","1","33","LP","8.51632916846187","414.068","422.585","422.975","8.907","0.39","3","96",""
"34","R_1ifk6NeVMFHGM61","standard","1","34","LP","5.5010771219302","423.987","429.505","429.903","5.916","0.398","3","99",""
"35","R_1ifk6NeVMFHGM61","standard","1","35","LP","19.8235243429556","430.909","450.735","451.191","20.282","0.456","3","102",""
"36","R_1ifk6NeVMFHGM61","standard","1","36","LP","8.51632916846187","452.197","460.718","461.103","8.906","0.385","3","105",""
"37","R_1ifk6NeVMFHGM61","standard","1","37","LP","30","462.122","492.136","492.512","30.39","0.376","3","108",""
"38","R_1ifk6NeVMFHGM61","standard","1","38","LP","30","493.515","523.521","523.912","30.397","0.391","3","111",""
"39","R_1ifk6NeVMFHGM61","standard","1","39","LP","8.51632916846187","524.928","533.452","534.08","9.152","0.628","3","114",""
"40","R_1ifk6NeVMFHGM61","standard","1","40","LP","13.0392072382594","535.084","548.129","548.577","13.493","0.448","3","117",""
"41","R_1ifk6NeVMFHGM61","standard","1","41","LP","8.51632916846187","549.588","558.11","558.544","8.956","0.434","3","120",""
"42","R_1ifk6NeVMFHGM61","standard","1","42","LP","13.0392072382594","559.548","572.593","573.328","13.78","0.735","3","120","12669"
"43","R_1ifk6NeVMFHGM61","standard","1","43","LP","19.8235243429556","574.335","594.165","594.689","20.354","0.524","3","123",""
"44","R_1ifk6NeVMFHGM61","standard","1","44","LP","3.49090909090909","595.692","599.204","599.728","4.036","0.524","3","126",""
"45","R_1ifk6NeVMFHGM61","standard","1","45","LP","13.0392072382594","600.73","613.787","614.224","13.494","0.437","3","129",""
"46","R_1ifk6NeVMFHGM61","standard","1","46","LP","2.15079707022835","615.228","617.38","618.128","2.9","0.748","3","132",""
"47","R_1ifk6NeVMFHGM61","standard","1","47","LP","5.5010771219302","619.138","624.644","625.12","5.982","0.476","3","135",""
"48","R_1ifk6NeVMFHGM61","standard","1","48","LP","5.5010771219302","626.132","631.636","632.2","6.068","0.564","3","138",""
"49","R_1ifk6NeVMFHGM61","standard","1","49","LP","0.661783713916415","633.209","633.876","634.337","1.128","0.461","3","141",""
"50","R_1ifk6NeVMFHGM61","standard","1","50","LP","2.15079707022835","635.34","637.506","637.912","2.572","0.406","3","141","540"
"51","R_1ifk6NeVMFHGM61","standard","1","51","LP","0.661783713916415","638.929","639.598","639.928","0.999","0.33","3","144",""
"52","R_1ifk6NeVMFHGM61","standard","1","52","LP","30","640.936","670.945","671.361","30.425","0.416","3","147",""
"53","R_1ifk6NeVMFHGM61","standard","1","53","LP","0.264713485566566","672.364","672.628","673.177","0.813","0.549","3","150",""
"54","R_1ifk6NeVMFHGM61","standard","1","54","LP","1.25738905644119","674.19","675.452","676.024","1.834","0.572","3","153",""
"55","R_1ifk6NeVMFHGM61","standard","1","55","LP","5.5010771219302","677.029","682.54","682.977","5.948","0.437","3","156",""
"56","R_1ifk6NeVMFHGM61","standard","1","56","LP","13.0392072382594","683.987","697.032","697.554","13.567","0.522","3","159",""
"57","R_1ifk6NeVMFHGM61","standard","1","57","LP","19.8235243429556","698.556","718.398","718.761","20.205","0.363","3","162",""
"58","R_1ifk6NeVMFHGM61","standard","1","58","LP","3.49090909090909","719.764","723.26","723.657","3.893","0.397","3","165",""
"59","R_1ifk6NeVMFHGM61","standard","1","59","LP","0.661783713916415","724.66","725.324","725.753","1.093","0.429","3","168",""
"60","R_1ifk6NeVMFHGM61","standard","1","60","LP","5.5010771219302","726.761","732.269","732.769","6.008","0.5","3","171",""
"61","R_1ifk6NeVMFHGM61","standard","1","61","LP","8.51632916846187","733.781","742.312","742.72","8.939","0.408","3","174",""
"62","R_1ifk6NeVMFHGM61","standard","1","62","LP","19.8235243429556","743.726","763.556","763.953","20.227","0.397","3","177",""
"63","R_1ifk6NeVMFHGM61","standard","1","63","LP","0.264713485566566","764.956","765.235","765.985","1.029","0.75","3","180",""
"64","R_1ifk6NeVMFHGM61","standard","1","64","LP","19.8235243429556","766.988","786.815","787.241","20.253","0.426","3","180","8397"
"65","R_1ifk6NeVMFHGM61","standard","1","65","LP","2.15079707022835","788.244","790.397","790.961","2.717","0.564","3","183",""
"66","R_1ifk6NeVMFHGM61","standard","1","66","LP","1.25738905644119","791.98","793.245","793.793","1.813","0.548","3","186",""
"67","R_1ifk6NeVMFHGM61","standard","1","67","LP","0.264713485566566","794.805","795.087","795.985","1.18","0.898","3","189",""
"68","R_1ifk6NeVMFHGM61","standard","1","68","LP","8.51632916846187","796.988","805.517","806.001","9.013","0.484","3","192",""
"69","R_1ifk6NeVMFHGM61","standard","1","69","LP","0.661783713916415","807.014","807.684","808.28","1.266","0.596","3","195",""
"70","R_1ifk6NeVMFHGM61","standard","1","70","LP","19.8235243429556","809.283","829.108","829.489","20.206","0.381","3","198",""
"71","R_1ifk6NeVMFHGM61","standard","1","71","LP","8.51632916846187","830.495","839.027","839.418","8.923","0.391","3","201",""
"72","R_1ifk6NeVMFHGM61","standard","1","72","LP","3.49090909090909","840.421","843.918","844.321","3.9","0.403","3","204",""
"73","R_1ifk6NeVMFHGM61","standard","1","73","LP","3.49090909090909","845.326","848.82","849.209","3.883","0.389","3","207",""
"74","R_1ifk6NeVMFHGM61","standard","1","74","LP","8.51632916846187","850.212","858.73","859.114","8.902","0.384","3","210",""
"75","R_1ifk6NeVMFHGM61","standard","1","75","LP","30","860.131","890.144","890.514","30.383","0.37","3","213",""
"76","R_1ifk6NeVMFHGM61","standard","1","76","LP","0.264713485566566","891.517","891.788","892.153","0.636","0.365","3","216",""
"77","R_1ifk6NeVMFHGM61","standard","1","77","LP","0.661783713916415","893.156","893.827","894.209","1.053","0.382","3","219",""
"78","R_1ifk6NeVMFHGM61","standard","1","78","LP","2.15079707022835","895.217","897.372","897.746","2.529","0.374","3","222",""
"79","R_1ifk6NeVMFHGM61","standard","2","1","LP","5.5010771219302","0","NaN","0.835","0.835","NaN","0","225",NA
"80","R_1ifk6NeVMFHGM61","standard","2","2","LP","3.49090909090909","1.838","NaN","2.714","0.876","NaN","0","225",NA
"81","R_1ifk6NeVMFHGM61","standard","2","3","LP","1.25738905644119","3.736","5.009","5.538","1.802","0.529","3","228",NA
"82","R_1ifk6NeVMFHGM61","standard","2","4","LP","13.0392072382594","6.539","19.579","19.946","13.407","0.367","3","231",NA
"83","R_1ifk6NeVMFHGM61","standard","2","5","LP","30","20.958","50.977","51.379","30.421","0.402","3","234",NA
"84","R_1ifk6NeVMFHGM61","standard","2","6","LP","8.51632916846187","52.388","60.906","61.378","8.99","0.472","3","237",NA
"85","R_1ifk6NeVMFHGM61","standard","2","7","LP","19.8235243429556","62.389","82.22","82.803","20.414","0.583","3","240",NA
"86","R_1ifk6NeVMFHGM61","standard","2","8","LP","13.0392072382594","83.805","96.852","97.299","13.494","0.447","3","243",NA
"87","R_1ifk6NeVMFHGM61","standard","2","9","LP","5.5010771219302","98.308","103.812","104.202","5.894","0.39","3","246",NA
"88","R_1ifk6NeVMFHGM61","standard","2","10","LP","13.0392072382594","105.21","118.251","118.707","13.497","0.456","3","249",NA
"89","R_1ifk6NeVMFHGM61","standard","2","11","LP","3.49090909090909","119.708","123.212","123.859","4.151","0.647","3","252",NA
"90","R_1ifk6NeVMFHGM61","standard","2","12","LP","0.661783713916415","124.864","125.533","125.947","1.083","0.414","3","255",NA
"91","R_1ifk6NeVMFHGM61","standard","2","13","LP","1.25738905644119","126.956","128.225","128.699","1.743","0.474","3","258",NA
"92","R_1ifk6NeVMFHGM61","standard","2","14","LP","0.661783713916415","129.708","130.372","130.827","1.119","0.455","3","261",NA
"93","R_1ifk6NeVMFHGM61","standard","2","15","LP","1.25738905644119","131.844","133.109","133.539","1.695","0.43","3","264",NA
"94","R_1ifk6NeVMFHGM61","standard","2","16","LP","8.51632916846187","134.548","143.068","143.811","9.263","0.743","3","267",NA
"95","R_1ifk6NeVMFHGM61","standard","2","17","LP","30","144.812","174.828","175.195","30.383","0.367","3","270",NA
"96","R_1ifk6NeVMFHGM61","standard","2","18","LP","2.15079707022835","176.211","178.364","178.883","2.672","0.519","3","273",NA
"97","R_1ifk6NeVMFHGM61","standard","2","19","LP","8.51632916846187","179.894","188.416","189.14","9.246","0.724","3","276",NA
"98","R_1ifk6NeVMFHGM61","standard","2","20","LP","30","190.147","220.155","220.539","30.392","0.384","3","279",NA
"99","R_1ifk6NeVMFHGM61","standard","2","21","LP","3.49090909090909","221.548","225.044","225.467","3.919","0.423","3","282",NA
"100","R_1ifk6NeVMFHGM61","standard","2","22","LP","1.25738905644119","226.468","227.736","228.195","1.727","0.459","3","285",NA
"101","R_1ifk6NeVMFHGM61","standard","2","23","LP","2.15079707022835","229.207","231.373","231.796","2.589","0.423","3","288",NA
"102","R_1ifk6NeVMFHGM61","standard","2","24","LP","1.25738905644119","232.819","234.084","234.483","1.664","0.399","3","291",NA
"103","R_1ifk6NeVMFHGM61","standard","2","25","LP","19.8235243429556","235.492","255.326","255.772","20.28","0.446","3","294",NA
"104","R_1ifk6NeVMFHGM61","standard","2","26","LP","1.25738905644119","256.78","258.046","258.596","1.816","0.55","3","297",NA
"105","R_1ifk6NeVMFHGM61","standard","2","27","LP","19.8235243429556","259.604","279.428","280.004","20.4","0.576","3","300",NA
"106","R_1ifk6NeVMFHGM61","standard","2","28","LP","30","281.01","311.013","311.612","30.602","0.599","3","303",NA
"107","R_1ifk6NeVMFHGM61","standard","2","29","LP","2.15079707022835","312.631","314.793","315.308","2.677","0.515","3","306",NA
"108","R_1ifk6NeVMFHGM61","standard","2","30","LP","1.25738905644119","316.317","317.587","318.14","1.823","0.553","3","309",NA
"109","R_1ifk6NeVMFHGM61","standard","2","31","LP","3.49090909090909","319.142","322.643","323.18","4.038","0.537","3","312",NA
"110","R_1ifk6NeVMFHGM61","standard","2","32","LP","0.264713485566566","324.188","324.459",NA,"1.281",NA,"0","312",NA
"111","R_1ifk6NeVMFHGM61","standard","2","33","LP","8.51632916846187","326.481","335.015","335.444","8.963","0.429","3","315",NA
"112","R_1ifk6NeVMFHGM61","standard","2","34","LP","1.25738905644119","336.453","337.716","338.14","1.687","0.424","3","318",NA
"113","R_1ifk6NeVMFHGM61","standard","2","35","LP","8.51632916846187","339.148","347.668","348.045","8.897","0.377","3","321",NA
"114","R_1ifk6NeVMFHGM61","standard","2","36","LP","2.15079707022835","349.052","351.215","351.588","2.536","0.373","3","324",NA
"115","R_1ifk6NeVMFHGM61","standard","2","37","LP","30","352.596","382.604","383.052","30.456","0.448","3","327",NA
"116","R_1ifk6NeVMFHGM61","standard","2","38","LP","30","384.06","414.068","414.5","30.44","0.432","3","330",NA
"117","R_1ifk6NeVMFHGM61","standard","2","39","LP","5.5010771219302","415.509","421.015",NA,"6.508",NA,"0","330",NA
"118","R_1ifk6NeVMFHGM61","standard","2","40","LP","30","423.025","453.034","453.429","30.404","0.395","3","333",NA
"119","R_1ifk6NeVMFHGM61","standard","2","41","LP","30","454.44","484.444","484.765","30.325","0.321","3","336",NA
"120","R_1ifk6NeVMFHGM61","standard","2","42","LP","0.264713485566566","485.781","486.052","486.388","0.607","0.336","3","339",NA
"121","R_1ifk6NeVMFHGM61","standard","2","43","LP","0.661783713916415","487.397","488.06","488.412","1.015","0.352","3","342",NA
"122","R_1ifk6NeVMFHGM61","standard","2","44","LP","0.661783713916415","489.413","490.076","490.444","1.031","0.368","3","345",NA
"123","R_1ifk6NeVMFHGM61","standard","2","45","LP","30","491.452","521.46","521.893","30.441","0.433","3","348",NA
"124","R_1ifk6NeVMFHGM61","standard","2","46","LP","19.8235243429556","522.908","542.742","543.198","20.29","0.456","3","351",NA
"125","R_1ifk6NeVMFHGM61","standard","2","47","LP","13.0392072382594","544.211","557.255","557.814","13.603","0.559","3","354",NA
"126","R_1ifk6NeVMFHGM61","standard","2","48","LP","5.5010771219302","558.823","564.336","564.862","6.039","0.526","3","357",NA
"127","R_1ifk6NeVMFHGM61","standard","2","49","LP","19.8235243429556","565.873","585.711","586.093","20.22","0.382","3","360",NA
