"","subject_id","condition","n_block","n_trialIdx","f_timing_condition","n_scheduled_delay","n_trial_start_time","n_rewarded_time_fin","n_sell_time_fin","n_time_waited_fin","RT_fin","n_trial_earnings_fin","n_total_earnings_fin","keypress_times"
"1","R_1IzLXvW5XQHqnLb","standard","1","1","HP","12","0.001","12.023","12.357","12.356","0.334","3","3",""
"2","R_1IzLXvW5XQHqnLb","standard","1","2","HP","18","13.371","31.382","31.701","18.33","0.319","3","6",""
"3","R_1IzLXvW5XQHqnLb","standard","1","3","HP","16","32.718","48.728","49.156","16.438","0.428","3","9",""
"4","R_1IzLXvW5XQHqnLb","standard","1","4","HP","4","50.17","54.177","54.653","4.483","0.476","3","12",""
"5","R_1IzLXvW5XQHqnLb","standard","1","5","HP","14","55.656","69.671","69.968","14.312","0.297","3","15",""
"6","R_1IzLXvW5XQHqnLb","standard","1","6","HP","6","70.977","76.984","77.339","6.362","0.355","3","18",""
"7","R_1IzLXvW5XQHqnLb","standard","1","7","HP","4","78.358","82.36","82.788","4.43","0.428","3","21",""
"8","R_1IzLXvW5XQHqnLb","standard","1","8","HP","18","83.806","101.814","102.095","18.289","0.281","3","24",""
"9","R_1IzLXvW5XQHqnLb","standard","1","9","HP","4","103.101","107.105","107.455","4.354","0.35","3","27",""
"10","R_1IzLXvW5XQHqnLb","standard","1","10","HP","12","108.457","120.468","120.778","12.321","0.31","3","30",""
"11","R_1IzLXvW5XQHqnLb","standard","1","11","HP","12","121.785","133.793","134.097","12.312","0.304","3","33",""
"12","R_1IzLXvW5XQHqnLb","standard","1","12","HP","12","135.11","147.123","147.483","12.373","0.36","3","36",""
"13","R_1IzLXvW5XQHqnLb","standard","1","13","HP","14","148.489","162.497","163.002","14.513","0.505","3","39",""
"14","R_1IzLXvW5XQHqnLb","standard","1","14","HP","20","164.022","184.036","184.362","20.34","0.326","3","42",""
"15","R_1IzLXvW5XQHqnLb","standard","1","15","HP","6","185.368","191.381","191.56","6.192","0.179","3","45",""
"16","R_1IzLXvW5XQHqnLb","standard","1","16","HP","8","192.569","200.577","201.006","8.437","0.429","3","48",""
"17","R_1IzLXvW5XQHqnLb","standard","1","17","HP","14","202.009","216.012","216.287","14.278","0.275","3","51",""
"18","R_1IzLXvW5XQHqnLb","standard","1","18","HP","12","217.302","229.314","229.673","12.371","0.359","3","54",""
"19","R_1IzLXvW5XQHqnLb","standard","1","19","HP","14","230.68","244.694","245","14.32","0.306","3","57",""
"20","R_1IzLXvW5XQHqnLb","standard","1","20","HP","4","246.008","250.01","250.413","4.405","0.403","3","60",""
"21","R_1IzLXvW5XQHqnLb","standard","1","21","HP","10","251.42","261.423","261.783","10.363","0.36","3","63",""
"22","R_1IzLXvW5XQHqnLb","standard","1","22","HP","8","262.785","270.805","271.178","8.393","0.373","3","66",""
"23","R_1IzLXvW5XQHqnLb","standard","1","23","HP","20","272.186","292.192","292.541","20.355","0.349","3","69",""
"24","R_1IzLXvW5XQHqnLb","standard","1","24","HP","6","293.549","299.552","299.966","6.417","0.414","3","72",""
"25","R_1IzLXvW5XQHqnLb","standard","1","25","HP","16","300.98","316.992","317.397","16.417","0.405","3","75",""
"26","R_1IzLXvW5XQHqnLb","standard","1","26","HP","16","318.401","334.42","334.843","16.442","0.423","3","78",""
"27","R_1IzLXvW5XQHqnLb","standard","1","27","HP","8","335.852","343.854","344.272","8.42","0.418","3","81",""
"28","R_1IzLXvW5XQHqnLb","standard","1","28","HP","2","345.294","347.297","NA","3.01","NA","0","81",""
"29","R_1IzLXvW5XQHqnLb","standard","1","29","HP","20","349.306","369.31","369.64","20.334","0.33","3","84",""
"30","R_1IzLXvW5XQHqnLb","standard","1","30","HP","10","370.648","380.659","381.103","10.455","0.444","3","87",""
"31","R_1IzLXvW5XQHqnLb","standard","1","31","HP","8","382.107","390.113","390.505","8.398","0.392","3","90",""
"32","R_1IzLXvW5XQHqnLb","standard","1","32","HP","16","391.505","407.519","407.848","16.343","0.329","3","93",""
"33","R_1IzLXvW5XQHqnLb","standard","1","33","HP","2","408.855","410.864","411.285","2.43","0.421","3","96",""
"34","R_1IzLXvW5XQHqnLb","standard","1","34","HP","2","412.287","414.297","414.787","2.5","0.49","3","99",""
"35","R_1IzLXvW5XQHqnLb","standard","1","35","HP","4","415.792","419.8","420.179","4.387","0.379","3","102",""
"36","R_1IzLXvW5XQHqnLb","standard","1","36","HP","20","421.184","441.196","441.539","20.355","0.343","3","105",""
"37","R_1IzLXvW5XQHqnLb","standard","1","37","HP","6","442.542","448.544","449.143","6.601","0.599","3","108",""
"38","R_1IzLXvW5XQHqnLb","standard","1","38","HP","6","450.163","456.183","456.585","6.422","0.402","3","111",""
"39","R_1IzLXvW5XQHqnLb","standard","1","39","HP","8","457.594","465.601","465.914","8.32","0.313","3","114",""
"40","R_1IzLXvW5XQHqnLb","standard","1","40","HP","10","466.932","476.939","477.294","10.362","0.355","3","117",""
"41","R_1IzLXvW5XQHqnLb","standard","1","41","HP","16","478.296","494.304","494.609","16.313","0.305","3","120",""
"42","R_1IzLXvW5XQHqnLb","standard","1","42","HP","2","495.609","497.621","498.105","2.496","0.484","3","123",""
"43","R_1IzLXvW5XQHqnLb","standard","1","43","HP","10","499.112","509.115","509.607","10.495","0.492","3","126",""
"44","R_1IzLXvW5XQHqnLb","standard","1","44","HP","12","510.611","522.621","522.995","12.384","0.374","3","129",""
"45","R_1IzLXvW5XQHqnLb","standard","1","45","HP","14","524","538.009","538.486","14.486","0.477","3","132",""
"46","R_1IzLXvW5XQHqnLb","standard","1","46","HP","12","539.489","551.505","551.827","12.338","0.322","3","135",""
"47","R_1IzLXvW5XQHqnLb","standard","1","47","HP","8","552.83","560.845","561.422","8.592","0.577","3","138",""
"48","R_1IzLXvW5XQHqnLb","standard","1","48","HP","14","562.426","576.433","576.804","14.378","0.371","3","141",""
"49","R_1IzLXvW5XQHqnLb","standard","1","49","HP","14","577.81","591.821","592.19","14.38","0.369","3","144",""
"50","R_1IzLXvW5XQHqnLb","standard","1","50","HP","6","593.193","599.201","599.767","6.574","0.566","3","147",""
"51","R_1IzLXvW5XQHqnLb","standard","1","51","HP","20","600.769","620.777","621.132","20.363","0.355","3","150",""
"52","R_1IzLXvW5XQHqnLb","standard","1","52","HP","16","622.138","638.152","638.566","16.428","0.414","3","153",""
"53","R_1IzLXvW5XQHqnLb","standard","1","53","HP","4","639.569","643.577","643.992","4.423","0.415","3","156",""
"54","R_1IzLXvW5XQHqnLb","standard","1","54","HP","18","645.012","663.03","663.426","18.414","0.396","3","159",""
"55","R_1IzLXvW5XQHqnLb","standard","1","55","HP","8","664.434","672.449","672.962","8.528","0.513","3","162",""
"56","R_1IzLXvW5XQHqnLb","standard","1","56","HP","4","673.975","677.976","678.345","4.37","0.369","3","165",""
"57","R_1IzLXvW5XQHqnLb","standard","1","57","HP","6","679.352","685.361","685.757","6.405","0.396","3","168",""
"58","R_1IzLXvW5XQHqnLb","standard","1","58","HP","6","686.761","692.768","693.128","6.367","0.36","3","171",""
"59","R_1IzLXvW5XQHqnLb","standard","1","59","HP","6","694.141","700.159","700.566","6.425","0.407","3","174",""
"60","R_1IzLXvW5XQHqnLb","standard","1","60","HP","14","701.569","715.576","716.005","14.436","0.429","3","177",""
"61","R_1IzLXvW5XQHqnLb","standard","1","61","HP","14","717.008","731.012","731.397","14.389","0.385","3","180",""
"62","R_1IzLXvW5XQHqnLb","standard","1","62","HP","10","732.412","742.413","743.15","10.738","0.737","3","183",""
"63","R_1IzLXvW5XQHqnLb","standard","1","63","HP","14","744.166","758.168","758.474","14.308","0.306","3","186",""
"64","R_1IzLXvW5XQHqnLb","standard","1","64","HP","4","759.48","763.491","763.869","4.389","0.378","3","189",""
"65","R_1IzLXvW5XQHqnLb","standard","1","65","HP","12","764.872","776.881","777.218","12.346","0.337","3","192",""
"66","R_1IzLXvW5XQHqnLb","standard","1","66","HP","2","778.225","780.235","781.023","2.798","0.788","3","195",""
"67","R_1IzLXvW5XQHqnLb","standard","1","67","HP","20","782.032","802.035","802.51","20.478","0.475","3","198",""
"68","R_1IzLXvW5XQHqnLb","standard","1","68","HP","6","803.512","809.514","810.026","6.514","0.512","3","201",""
"69","R_1IzLXvW5XQHqnLb","standard","1","69","HP","12","811.034","823.046","823.38","12.346","0.334","3","204",""
"70","R_1IzLXvW5XQHqnLb","standard","1","70","HP","2","824.385","826.392","826.981","2.596","0.589","3","207",""
"71","R_1IzLXvW5XQHqnLb","standard","1","71","HP","16","827.985","843.992","844.451","16.466","0.459","3","210",""
"72","R_1IzLXvW5XQHqnLb","standard","1","72","HP","6","845.461","851.465","851.918","6.457","0.453","3","213",""
"73","R_1IzLXvW5XQHqnLb","standard","1","73","HP","4","852.923","856.929","857.41","4.487","0.481","3","216",""
"74","R_1IzLXvW5XQHqnLb","standard","1","74","HP","20","858.424","878.434","878.815","20.391","0.381","3","219",""
"75","R_1IzLXvW5XQHqnLb","standard","1","75","HP","6","879.82","885.827","886.206","6.386","0.379","3","222",""
"76","R_1IzLXvW5XQHqnLb","standard","1","76","HP","4","887.222","891.235","891.577","4.355","0.342","3","225",""
"77","R_1IzLXvW5XQHqnLb","standard","2","1","LP","8.51632916846187","0","8.529","9.147","9.147","0.618","3","228",NA
"78","R_1IzLXvW5XQHqnLb","standard","2","2","LP","2.15079707022835","10.156","12.307","12.741","2.585","0.434","3","231",NA
"79","R_1IzLXvW5XQHqnLb","standard","2","3","LP","8.51632916846187","13.752","22.279","22.62","8.868","0.341","3","234",NA
"80","R_1IzLXvW5XQHqnLb","standard","2","4","LP","0.264713485566566","23.627","23.899","24.443","0.816","0.544","3","237",NA
"81","R_1IzLXvW5XQHqnLb","standard","2","5","LP","8.51632916846187","25.451","33.971","34.31","8.859","0.339","3","240",NA
"82","R_1IzLXvW5XQHqnLb","standard","2","6","LP","8.51632916846187","35.321","43.852","44.166","8.845","0.314","3","243",NA
"83","R_1IzLXvW5XQHqnLb","standard","2","7","LP","1.25738905644119","45.182","46.444","46.831","1.649","0.387","3","246",NA
"84","R_1IzLXvW5XQHqnLb","standard","2","8","LP","3.49090909090909","47.833","51.345","51.67","3.837","0.325","3","249",NA
"85","R_1IzLXvW5XQHqnLb","standard","2","9","LP","2.15079707022835","52.68","54.847","55.163","2.483","0.316","3","252",NA
"86","R_1IzLXvW5XQHqnLb","standard","2","10","LP","5.5010771219302","56.171","61.675","61.968","5.797","0.293","3","255",NA
"87","R_1IzLXvW5XQHqnLb","standard","2","11","LP","30","62.971","NaN","74.141","11.17","NaN","0","255",NA
"88","R_1IzLXvW5XQHqnLb","standard","2","12","LP","19.8235243429556","75.146","NaN","83.195","8.049","NaN","0","255",NA
"89","R_1IzLXvW5XQHqnLb","standard","2","13","LP","2.15079707022835","84.209","86.374","86.741","2.532","0.367","3","258",NA
"90","R_1IzLXvW5XQHqnLb","standard","2","14","LP","13.0392072382594","87.745","NaN","89.884","2.139","NaN","0","258",NA
"91","R_1IzLXvW5XQHqnLb","standard","2","15","LP","0.264713485566566","90.891","91.163","91.597","0.706","0.434","3","261",NA
"92","R_1IzLXvW5XQHqnLb","standard","2","16","LP","5.5010771219302","92.617","98.123","98.45","5.833","0.327","3","264",NA
"93","R_1IzLXvW5XQHqnLb","standard","2","17","LP","1.25738905644119","99.451","100.718","101.134","1.683","0.416","3","267",NA
"94","R_1IzLXvW5XQHqnLb","standard","2","18","LP","3.49090909090909","102.139","105.643","106.109","3.97","0.466","3","270",NA
"95","R_1IzLXvW5XQHqnLb","standard","2","19","LP","13.0392072382594","107.118","NaN","114.639","7.521","NaN","0","270",NA
"96","R_1IzLXvW5XQHqnLb","standard","2","20","LP","0.264713485566566","115.642","115.907","116.415","0.773","0.508","3","273",NA
"97","R_1IzLXvW5XQHqnLb","standard","2","21","LP","0.661783713916415","117.426","118.091","118.432","1.006","0.341","3","276",NA
"98","R_1IzLXvW5XQHqnLb","standard","2","22","LP","5.5010771219302","119.441","124.948","125.296","5.855","0.348","3","279",NA
"99","R_1IzLXvW5XQHqnLb","standard","2","23","LP","0.264713485566566","126.314","126.592","127.261","0.947","0.669","3","282",NA
"100","R_1IzLXvW5XQHqnLb","standard","2","24","LP","1.25738905644119","128.269","129.54","129.879","1.61","0.339","3","285",NA
"101","R_1IzLXvW5XQHqnLb","standard","2","25","LP","1.25738905644119","130.897","132.16","132.579","1.682","0.419","3","288",NA
"102","R_1IzLXvW5XQHqnLb","standard","2","26","LP","0.661783713916415","133.579","134.244","134.582","1.003","0.338","3","291",NA
"103","R_1IzLXvW5XQHqnLb","standard","2","27","LP","5.5010771219302","135.587","141.092","141.542","5.955","0.45","3","294",NA
"104","R_1IzLXvW5XQHqnLb","standard","2","28","LP","1.25738905644119","142.547","143.815","144.192","1.645","0.377","3","297",NA
"105","R_1IzLXvW5XQHqnLb","standard","2","29","LP","2.15079707022835","145.2","147.355","147.783","2.583","0.428","3","300",NA
"106","R_1IzLXvW5XQHqnLb","standard","2","30","LP","0.264713485566566","148.788","149.055","149.591","0.803","0.536","3","303",NA
"107","R_1IzLXvW5XQHqnLb","standard","2","31","LP","0.661783713916415","150.599","151.28","151.619","1.02","0.339","3","306",NA
"108","R_1IzLXvW5XQHqnLb","standard","2","32","LP","13.0392072382594","152.632","NaN","158.624","5.992","NaN","0","306",NA
"109","R_1IzLXvW5XQHqnLb","standard","2","33","LP","5.5010771219302","159.628","165.132","165.492","5.864","0.36","3","309",NA
"110","R_1IzLXvW5XQHqnLb","standard","2","34","LP","30","166.5","NaN","172.208","5.708","NaN","0","309",NA
"111","R_1IzLXvW5XQHqnLb","standard","2","35","LP","5.5010771219302","173.214","178.729","179.063","5.849","0.334","3","312",NA
"112","R_1IzLXvW5XQHqnLb","standard","2","36","LP","0.661783713916415","180.067","180.733","181.125","1.058","0.392","3","315",NA
"113","R_1IzLXvW5XQHqnLb","standard","2","37","LP","0.264713485566566","182.134","182.414","182.999","0.865","0.585","3","318",NA
"114","R_1IzLXvW5XQHqnLb","standard","2","38","LP","1.25738905644119","184.004","185.267","185.584","1.58","0.317","3","321",NA
"115","R_1IzLXvW5XQHqnLb","standard","2","39","LP","5.5010771219302","186.599","192.107","192.457","5.858","0.35","3","324",NA
"116","R_1IzLXvW5XQHqnLb","standard","2","40","LP","5.5010771219302","193.46","NaN","198.768","5.308","NaN","0","324",NA
"117","R_1IzLXvW5XQHqnLb","standard","2","41","LP","2.15079707022835","199.771","201.926","202.431","2.66","0.505","3","327",NA
"118","R_1IzLXvW5XQHqnLb","standard","2","42","LP","3.49090909090909","203.433","206.931","207.289","3.856","0.358","3","330",NA
"119","R_1IzLXvW5XQHqnLb","standard","2","43","LP","0.264713485566566","208.291","208.563","209.023","0.732","0.46","3","333",NA
"120","R_1IzLXvW5XQHqnLb","standard","2","44","LP","2.15079707022835","210.029","212.187","212.585","2.556","0.398","3","336",NA
"121","R_1IzLXvW5XQHqnLb","standard","2","45","LP","8.51632916846187","213.587","NaN","219.924","6.337","NaN","0","336",NA
"122","R_1IzLXvW5XQHqnLb","standard","2","46","LP","13.0392072382594","220.935","NaN","227.295","6.36","NaN","0","336",NA
"123","R_1IzLXvW5XQHqnLb","standard","2","47","LP","1.25738905644119","228.314","229.588","230.008","1.694","0.42","3","339",NA
"124","R_1IzLXvW5XQHqnLb","standard","2","48","LP","19.8235243429556","231.018","NaN","238.461","7.443","NaN","0","339",NA
"125","R_1IzLXvW5XQHqnLb","standard","2","49","LP","1.25738905644119","239.478","240.74","241.058","1.58","0.318","3","342",NA
"126","R_1IzLXvW5XQHqnLb","standard","2","50","LP","0.661783713916415","242.069","242.732","243.075","1.006","0.343","3","345",NA
"127","R_1IzLXvW5XQHqnLb","standard","2","51","LP","5.5010771219302","244.077","249.585","249.93","5.853","0.345","3","348",NA
"128","R_1IzLXvW5XQHqnLb","standard","2","52","LP","1.25738905644119","250.934","252.209","252.521","1.587","0.312","3","351",NA
"129","R_1IzLXvW5XQHqnLb","standard","2","53","LP","13.0392072382594","253.539","NaN","259.968","6.429","NaN","0","351",NA
"130","R_1IzLXvW5XQHqnLb","standard","2","54","LP","3.49090909090909","260.972","264.47","264.866","3.894","0.396","3","354",NA
"131","R_1IzLXvW5XQHqnLb","standard","2","55","LP","30","265.873","NaN","272.246","6.373","NaN","0","354",NA
"132","R_1IzLXvW5XQHqnLb","standard","2","56","LP","5.5010771219302","273.261","NaN","278.49","5.229","NaN","0","354",NA
"133","R_1IzLXvW5XQHqnLb","standard","2","57","LP","8.51632916846187","279.492","NaN","285.922","6.43","NaN","0","354",NA
"134","R_1IzLXvW5XQHqnLb","standard","2","58","LP","1.25738905644119","286.923","288.188","288.513","1.59","0.325","3","357",NA
"135","R_1IzLXvW5XQHqnLb","standard","2","59","LP","8.51632916846187","289.517","NaN","294.493","4.976","NaN","0","357",NA
"136","R_1IzLXvW5XQHqnLb","standard","2","60","LP","13.0392072382594","295.502","NaN","299.942","4.44","NaN","0","357",NA
"137","R_1IzLXvW5XQHqnLb","standard","2","61","LP","3.49090909090909","300.947","304.445","304.808","3.861","0.363","3","360",NA
"138","R_1IzLXvW5XQHqnLb","standard","2","62","LP","5.5010771219302","305.824","NaN","311.193","5.369","NaN","0","360",NA
"139","R_1IzLXvW5XQHqnLb","standard","2","63","LP","3.49090909090909","312.195","315.692","316.07","3.875","0.378","3","363",NA
"140","R_1IzLXvW5XQHqnLb","standard","2","64","LP","19.8235243429556","317.088","NaN","324.604","7.516","NaN","0","363",NA
"141","R_1IzLXvW5XQHqnLb","standard","2","65","LP","0.661783713916415","325.605","326.267","326.689","1.084","0.422","3","366",NA
"142","R_1IzLXvW5XQHqnLb","standard","2","66","LP","30","327.691","NaN","336.16","8.469","NaN","0","366",NA
"143","R_1IzLXvW5XQHqnLb","standard","2","67","LP","0.661783713916415","337.164","337.828","338.147","0.983","0.319","3","369",NA
"144","R_1IzLXvW5XQHqnLb","standard","2","68","LP","1.25738905644119","339.15","340.423","340.731","1.581","0.308","3","372",NA
"145","R_1IzLXvW5XQHqnLb","standard","2","69","LP","2.15079707022835","341.733","343.892","344.21","2.477","0.318","3","375",NA
"146","R_1IzLXvW5XQHqnLb","standard","2","70","LP","2.15079707022835","345.215","347.386","347.692","2.477","0.306","3","378",NA
"147","R_1IzLXvW5XQHqnLb","standard","2","71","LP","1.25738905644119","348.705","349.964","350.276","1.571","0.312","3","381",NA
"148","R_1IzLXvW5XQHqnLb","standard","2","72","LP","1.25738905644119","351.284","352.548","352.878","1.594","0.33","3","384",NA
"149","R_1IzLXvW5XQHqnLb","standard","2","73","LP","30","353.884","NaN","361.117","7.233","NaN","0","384",NA
"150","R_1IzLXvW5XQHqnLb","standard","2","74","LP","2.15079707022835","362.131","364.284","364.599","2.468","0.315","3","387",NA
"151","R_1IzLXvW5XQHqnLb","standard","2","75","LP","19.8235243429556","365.617","NaN","372.328","6.711","NaN","0","387",NA
"152","R_1IzLXvW5XQHqnLb","standard","2","76","LP","0.661783713916415","373.329","374","374.629","1.3","0.629","3","390",NA
"153","R_1IzLXvW5XQHqnLb","standard","2","77","LP","3.49090909090909","375.645","379.145","379.498","3.853","0.353","3","393",NA
"154","R_1IzLXvW5XQHqnLb","standard","2","78","LP","30","380.507","NaN","386.725","6.218","NaN","0","393",NA
"155","R_1IzLXvW5XQHqnLb","standard","2","79","LP","8.51632916846187","387.732","NaN","393.915","6.183","NaN","0","393",NA
"156","R_1IzLXvW5XQHqnLb","standard","2","80","LP","5.5010771219302","394.923","NaN","399.575","4.652","NaN","0","393",NA
"157","R_1IzLXvW5XQHqnLb","standard","2","81","LP","19.8235243429556","400.58","NaN","407.837","7.257","NaN","0","393",NA
"158","R_1IzLXvW5XQHqnLb","standard","2","82","LP","13.0392072382594","408.858","NaN","416.591","7.733","NaN","0","393",NA
"159","R_1IzLXvW5XQHqnLb","standard","2","83","LP","0.264713485566566","417.597","417.868","418.835","1.238","0.967","3","396",NA
"160","R_1IzLXvW5XQHqnLb","standard","2","84","LP","0.264713485566566","419.84","420.107","420.769","0.929","0.662","3","399",NA
"161","R_1IzLXvW5XQHqnLb","standard","2","85","LP","5.5010771219302","421.771","427.278","427.636","5.865","0.358","3","402",NA
"162","R_1IzLXvW5XQHqnLb","standard","2","86","LP","2.15079707022835","428.639","430.805","431.136","2.497","0.331","3","405",NA
"163","R_1IzLXvW5XQHqnLb","standard","2","87","LP","0.264713485566566","432.139","432.405","432.817","0.678","0.412","3","408",NA
"164","R_1IzLXvW5XQHqnLb","standard","2","88","LP","0.264713485566566","433.829","434.1","434.651","0.822","0.551","3","411",NA
"165","R_1IzLXvW5XQHqnLb","standard","2","89","LP","13.0392072382594","435.651","NaN","443.372","7.721","NaN","0","411",NA
"166","R_1IzLXvW5XQHqnLb","standard","2","90","LP","0.264713485566566","444.38","444.661","445.215","0.835","0.554","3","414",NA
"167","R_1IzLXvW5XQHqnLb","standard","2","91","LP","8.51632916846187","446.217","NaN","453.189","6.972","NaN","0","414",NA
"168","R_1IzLXvW5XQHqnLb","standard","2","92","LP","13.0392072382594","454.196","NaN","463.195","8.999","NaN","0","414",NA
"169","R_1IzLXvW5XQHqnLb","standard","2","93","LP","30","464.196","NaN","470.702","6.506","NaN","0","414",NA
"170","R_1IzLXvW5XQHqnLb","standard","2","94","LP","13.0392072382594","471.708","NaN","477.209","5.501","NaN","0","414",NA
"171","R_1IzLXvW5XQHqnLb","standard","2","95","LP","5.5010771219302","478.222","NaN","482.818","4.596","NaN","0","414",NA
"172","R_1IzLXvW5XQHqnLb","standard","2","96","LP","30","483.83","NaN","490.552","6.722","NaN","0","414",NA
"173","R_1IzLXvW5XQHqnLb","standard","2","97","LP","19.8235243429556","491.558","NaN","497.433","5.875","NaN","0","414",NA
"174","R_1IzLXvW5XQHqnLb","standard","2","98","LP","5.5010771219302","498.436","503.955","504.475","6.039","0.52","3","417",NA
"175","R_1IzLXvW5XQHqnLb","standard","2","99","LP","1.25738905644119","505.493","506.764","507.337","1.844","0.573","3","420",NA
"176","R_1IzLXvW5XQHqnLb","standard","2","100","LP","13.0392072382594","508.343","NaN","510.83","2.487","NaN","0","420",NA
"177","R_1IzLXvW5XQHqnLb","standard","2","101","LP","13.0392072382594","511.83","NaN","518.891","7.061","NaN","0","420",NA
"178","R_1IzLXvW5XQHqnLb","standard","2","102","LP","1.25738905644119","519.9","521.171","521.577","1.677","0.406","3","423",NA
"179","R_1IzLXvW5XQHqnLb","standard","2","103","LP","0.264713485566566","522.58","522.859","523.377","0.797","0.518","3","426",NA
"180","R_1IzLXvW5XQHqnLb","standard","2","104","LP","2.15079707022835","524.38","526.532","526.949","2.569","0.417","3","429",NA
"181","R_1IzLXvW5XQHqnLb","standard","2","105","LP","2.15079707022835","527.956","530.122","530.445","2.489","0.323","3","432",NA
"182","R_1IzLXvW5XQHqnLb","standard","2","106","LP","0.661783713916415","531.451","532.12","532.456","1.005","0.336","3","435",NA
"183","R_1IzLXvW5XQHqnLb","standard","2","107","LP","19.8235243429556","533.466","NaN","541.027","7.561","NaN","0","435",NA
"184","R_1IzLXvW5XQHqnLb","standard","2","108","LP","0.661783713916415","542.036","542.699","543.035","0.999","0.336","3","438",NA
"185","R_1IzLXvW5XQHqnLb","standard","2","109","LP","19.8235243429556","544.044","NaN","545.673","1.629","NaN","0","438",NA
"186","R_1IzLXvW5XQHqnLb","standard","2","110","LP","19.8235243429556","546.675","NaN","552.665","5.99","NaN","0","438",NA
"187","R_1IzLXvW5XQHqnLb","standard","2","111","LP","0.264713485566566","553.683","553.959","554.732","1.049","0.773","3","441",NA
"188","R_1IzLXvW5XQHqnLb","standard","2","112","LP","2.15079707022835","555.735","557.892","558.294","2.559","0.402","3","444",NA
"189","R_1IzLXvW5XQHqnLb","standard","2","113","LP","30","559.303","NaN","565.042","5.739","NaN","0","444",NA
"190","R_1IzLXvW5XQHqnLb","standard","2","114","LP","5.5010771219302","566.055","NaN","570.705","4.65","NaN","0","444",NA
"191","R_1IzLXvW5XQHqnLb","standard","2","115","LP","5.5010771219302","571.708","NaN","577.11","5.402","NaN","0","444",NA
"192","R_1IzLXvW5XQHqnLb","standard","2","116","LP","2.15079707022835","578.121","580.275","580.756","2.635","0.481","3","447",NA
"193","R_1IzLXvW5XQHqnLb","standard","2","117","LP","8.51632916846187","581.776","NaN","588.357","6.581","NaN","0","447",NA
"194","R_1IzLXvW5XQHqnLb","standard","2","118","LP","2.15079707022835","589.364","591.523","591.868","2.504","0.345","3","450",NA
"195","R_1IzLXvW5XQHqnLb","standard","2","119","LP","13.0392072382594","592.886","NaN","595.683","2.797","NaN","0","450",NA
