"","subject_id","condition","n_block","n_trialIdx","f_timing_condition","n_scheduled_delay","n_trial_start_time","n_rewarded_time_fin","n_sell_time_fin","n_time_waited_fin","RT_fin","n_trial_earnings_fin","n_total_earnings_fin","keypress_times"
"1","R_1jVDeeCRSDv5Yjs","standard","1","1","HP","2","0.001","2.005","2.388","2.387","0.383","3","3",""
"2","R_1jVDeeCRSDv5Yjs","standard","1","2","HP","18","3.389","21.398","21.905","18.516","0.507","3","3","3843"
"3","R_1jVDeeCRSDv5Yjs","standard","1","3","HP","2","22.91","24.91","25.413","2.503","0.503","3","6",""
"4","R_1jVDeeCRSDv5Yjs","standard","1","4","HP","8","26.421","34.429","34.784","8.363","0.355","3","9",""
"5","R_1jVDeeCRSDv5Yjs","standard","1","5","HP","8","35.789","43.798","44.133","8.344","0.335","3","12",""
"6","R_1jVDeeCRSDv5Yjs","standard","1","6","HP","4","45.141","49.149","49.489","4.348","0.34","3","15",""
"7","R_1jVDeeCRSDv5Yjs","standard","1","7","HP","2","50.494","52.502","53.074","2.58","0.572","3","18",""
"8","R_1jVDeeCRSDv5Yjs","standard","1","8","HP","6","54.077","60.086","60.418","6.341","0.332","3","21",""
"9","R_1jVDeeCRSDv5Yjs","standard","1","9","HP","6","61.422","67.429","NA","7.016","NA","0","18","5959"
"10","R_1jVDeeCRSDv5Yjs","standard","1","10","HP","18","69.446","87.454","87.789","18.343","0.335","3","21",""
"11","R_1jVDeeCRSDv5Yjs","standard","1","11","HP","12","88.797","100.805","101.192","12.395","0.387","3","24",""
"12","R_1jVDeeCRSDv5Yjs","standard","1","12","HP","2","102.197","104.205","104.791","2.594","0.586","3","27",""
"13","R_1jVDeeCRSDv5Yjs","standard","1","13","HP","8","105.798","113.806","114.174","8.376","0.368","3","30",""
"14","R_1jVDeeCRSDv5Yjs","standard","1","14","HP","10","115.181","125.189","125.561","10.38","0.372","3","33",""
"15","R_1jVDeeCRSDv5Yjs","standard","1","15","HP","12","126.566","138.575","138.911","12.345","0.336","3","36",""
"16","R_1jVDeeCRSDv5Yjs","standard","1","16","HP","14","139.912","153.917","154.356","14.444","0.439","3","39",""
"17","R_1jVDeeCRSDv5Yjs","standard","1","17","HP","6","155.357","161.365","161.812","6.455","0.447","3","42",""
"18","R_1jVDeeCRSDv5Yjs","standard","1","18","HP","14","162.813","176.821","177.206","14.393","0.385","3","45",""
"19","R_1jVDeeCRSDv5Yjs","standard","1","19","HP","16","178.206","194.213","194.575","16.369","0.362","3","48",""
"20","R_1jVDeeCRSDv5Yjs","standard","1","20","HP","12","195.581","207.589","207.965","12.384","0.376","3","51",""
"21","R_1jVDeeCRSDv5Yjs","standard","1","21","HP","12","208.973","220.981","221.377","12.404","0.396","3","54",""
"22","R_1jVDeeCRSDv5Yjs","standard","1","22","HP","8","222.38","230.389","230.74","8.36","0.351","3","57",""
"23","R_1jVDeeCRSDv5Yjs","standard","1","23","HP","12","231.741","243.749","244.107","12.366","0.358","3","60",""
"24","R_1jVDeeCRSDv5Yjs","standard","1","24","HP","12","245.109","257.11","257.499","12.39","0.389","3","63",""
"25","R_1jVDeeCRSDv5Yjs","standard","1","25","HP","14","258.501","272.511","272.857","14.356","0.346","3","66",""
"26","R_1jVDeeCRSDv5Yjs","standard","1","26","HP","8","273.861","281.869","282.186","8.325","0.317","3","69",""
"27","R_1jVDeeCRSDv5Yjs","standard","1","27","HP","4","283.189","287.197","287.546","4.357","0.349","3","72",""
"28","R_1jVDeeCRSDv5Yjs","standard","1","28","HP","18","288.549","306.557","306.832","18.283","0.275","3","75",""
"29","R_1jVDeeCRSDv5Yjs","standard","1","29","HP","2","307.837","309.845","310.549","2.712","0.704","3","78",""
"30","R_1jVDeeCRSDv5Yjs","standard","1","30","HP","6","311.557","317.565","317.943","6.386","0.378","3","81",""
"31","R_1jVDeeCRSDv5Yjs","standard","1","31","HP","20","318.949","338.957","339.254","20.305","0.297","3","84",""
"32","R_1jVDeeCRSDv5Yjs","standard","1","32","HP","14","340.261","354.268","354.697","14.436","0.429","3","87",""
"33","R_1jVDeeCRSDv5Yjs","standard","1","33","HP","14","355.701","369.709","370.081","14.38","0.372","3","90",""
"34","R_1jVDeeCRSDv5Yjs","standard","1","34","HP","6","371.086","377.094","377.449","6.363","0.355","3","93",""
"35","R_1jVDeeCRSDv5Yjs","standard","1","35","HP","10","378.453","388.46","388.8","10.347","0.34","3","96",""
"36","R_1jVDeeCRSDv5Yjs","standard","1","36","HP","2","389.804","391.805","NA","3.002","NA","0","96",""
"37","R_1jVDeeCRSDv5Yjs","standard","1","37","HP","4","393.809","397.813","398.152","4.343","0.339","3","99",""
"38","R_1jVDeeCRSDv5Yjs","standard","1","38","HP","16","399.156","415.164","415.623","16.467","0.459","3","99","6406"
"39","R_1jVDeeCRSDv5Yjs","standard","1","39","HP","6","416.629","422.636","423.281","6.652","0.645","3","102",""
"40","R_1jVDeeCRSDv5Yjs","standard","1","40","HP","4","424.285","428.293","428.629","4.344","0.336","3","105",""
"41","R_1jVDeeCRSDv5Yjs","standard","1","41","HP","18","429.637","447.645","447.933","18.296","0.288","3","108",""
"42","R_1jVDeeCRSDv5Yjs","standard","1","42","HP","6","448.941","454.949","455.477","6.536","0.528","3","111",""
"43","R_1jVDeeCRSDv5Yjs","standard","1","43","HP","14","456.485","470.495","470.934","14.449","0.439","3","114",""
"44","R_1jVDeeCRSDv5Yjs","standard","1","44","HP","20","471.941","491.949","492.329","20.388","0.38","3","117",""
"45","R_1jVDeeCRSDv5Yjs","standard","1","45","HP","16","493.333","509.341","509.727","16.394","0.386","3","120",""
"46","R_1jVDeeCRSDv5Yjs","standard","1","46","HP","20","510.734","530.741","531.079","20.345","0.338","3","123",""
"47","R_1jVDeeCRSDv5Yjs","standard","1","47","HP","12","532.088","544.094","544.463","12.375","0.369","3","126",""
"48","R_1jVDeeCRSDv5Yjs","standard","1","48","HP","14","545.469","559.477","559.784","14.315","0.307","3","129",""
"49","R_1jVDeeCRSDv5Yjs","standard","1","49","HP","18","560.788","578.797","579.117","18.329","0.32","3","132",""
"50","R_1jVDeeCRSDv5Yjs","standard","1","50","HP","20","580.126","600.133","600.503","20.377","0.37","3","135",""
"51","R_1jVDeeCRSDv5Yjs","standard","1","51","HP","18","601.509","619.51","619.988","18.479","0.478","3","138",""
"52","R_1jVDeeCRSDv5Yjs","standard","1","52","HP","6","620.996","627.007","627.443","6.447","0.436","3","141",""
"53","R_1jVDeeCRSDv5Yjs","standard","1","53","HP","2","628.446","630.453","631.052","2.606","0.599","3","144",""
"54","R_1jVDeeCRSDv5Yjs","standard","1","54","HP","10","632.053","642.062","642.418","10.365","0.356","3","147",""
"55","R_1jVDeeCRSDv5Yjs","standard","1","55","HP","16","643.424","659.441","659.79","16.366","0.349","3","150",""
"56","R_1jVDeeCRSDv5Yjs","standard","1","56","HP","4","660.793","664.803","665.191","4.398","0.388","3","153",""
"57","R_1jVDeeCRSDv5Yjs","standard","1","57","HP","6","666.195","672.204","672.617","6.422","0.413","3","156",""
"58","R_1jVDeeCRSDv5Yjs","standard","1","58","HP","2","673.622","675.624","676.347","2.725","0.723","3","159",""
"59","R_1jVDeeCRSDv5Yjs","standard","1","59","HP","10","677.349","687.358","687.689","10.34","0.331","3","162",""
"60","R_1jVDeeCRSDv5Yjs","standard","1","60","HP","20","688.693","708.704","709.04","20.347","0.336","3","165",""
"61","R_1jVDeeCRSDv5Yjs","standard","1","61","HP","16","710.046","726.054","726.471","16.425","0.417","3","168",""
"62","R_1jVDeeCRSDv5Yjs","standard","1","62","HP","10","727.479","737.486","737.858","10.379","0.372","3","171",""
"63","R_1jVDeeCRSDv5Yjs","standard","1","63","HP","16","738.865","754.871","755.184","16.319","0.313","3","174",""
"64","R_1jVDeeCRSDv5Yjs","standard","1","64","HP","18","756.191","774.198","774.609","18.418","0.411","3","177",""
"65","R_1jVDeeCRSDv5Yjs","standard","1","65","HP","8","775.615","783.626","784.13","8.515","0.504","3","180",""
"66","R_1jVDeeCRSDv5Yjs","standard","1","66","HP","8","785.134","793.135","793.506","8.372","0.371","3","183",""
"67","R_1jVDeeCRSDv5Yjs","standard","1","67","HP","8","794.512","802.519","802.877","8.365","0.358","3","186",""
"68","R_1jVDeeCRSDv5Yjs","standard","1","68","HP","8","803.88","811.887","812.236","8.356","0.349","3","189",""
"69","R_1jVDeeCRSDv5Yjs","standard","1","69","HP","8","813.239","821.248","821.728","8.489","0.48","3","192",""
"70","R_1jVDeeCRSDv5Yjs","standard","1","70","HP","16","822.728","838.729","839.056","16.328","0.327","3","195",""
"71","R_1jVDeeCRSDv5Yjs","standard","1","71","HP","4","840.064","844.073","844.565","4.501","0.492","3","198",""
"72","R_1jVDeeCRSDv5Yjs","standard","1","72","HP","14","845.572","859.575","860.008","14.436","0.433","3","201",""
"73","R_1jVDeeCRSDv5Yjs","standard","1","73","HP","14","861.017","875.024","875.35","14.333","0.326","3","204",""
"74","R_1jVDeeCRSDv5Yjs","standard","1","74","HP","4","876.352","880.36","880.821","4.469","0.461","3","207",""
"75","R_1jVDeeCRSDv5Yjs","standard","1","75","HP","14","881.824","895.825","896.203","14.379","0.378","3","210",""
"76","R_1jVDeeCRSDv5Yjs","standard","2","1","LP","3.49090909090909","0","3.497","3.857","3.857","0.36","3","216",NA
"77","R_1jVDeeCRSDv5Yjs","standard","2","2","LP","5.5010771219302","4.864","10.368","10.7","5.836","0.332","3","219",NA
"78","R_1jVDeeCRSDv5Yjs","standard","2","3","LP","1.25738905644119","11.704","12.968","13.359","1.655","0.391","3","222",NA
"79","R_1jVDeeCRSDv5Yjs","standard","2","4","LP","0.661783713916415","14.368","15.034","15.479","1.111","0.445","3","225",NA
"80","R_1jVDeeCRSDv5Yjs","standard","2","5","LP","8.51632916846187","16.481","25","25.417","8.936","0.417","3","228",NA
"81","R_1jVDeeCRSDv5Yjs","standard","2","6","LP","0.264713485566566","26.427","26.696","27.077","0.65","0.381","3","231",NA
"82","R_1jVDeeCRSDv5Yjs","standard","2","7","LP","2.15079707022835","28.08","30.233","30.655","2.575","0.422","3","234",NA
"83","R_1jVDeeCRSDv5Yjs","standard","2","8","LP","8.51632916846187","31.656","40.177","40.56","8.904","0.383","3","237",NA
"84","R_1jVDeeCRSDv5Yjs","standard","2","9","LP","2.15079707022835","41.569","43.72","44.138","2.569","0.418","3","240",NA
"85","R_1jVDeeCRSDv5Yjs","standard","2","10","LP","13.0392072382594","45.144","NaN","48.293","3.149","NaN","0","240",NA
"86","R_1jVDeeCRSDv5Yjs","standard","2","11","LP","8.51632916846187","49.297","NaN","54.008","4.711","NaN","0","240",NA
"87","R_1jVDeeCRSDv5Yjs","standard","2","12","LP","13.0392072382594","55.009","NaN","58.505","3.496","NaN","0","240",NA
"88","R_1jVDeeCRSDv5Yjs","standard","2","13","LP","3.49090909090909","59.506","63.001","63.358","3.852","0.357","3","243",NA
"89","R_1jVDeeCRSDv5Yjs","standard","2","14","LP","19.8235243429556","64.36","NaN","69.281","4.921","NaN","0","243",NA
"90","R_1jVDeeCRSDv5Yjs","standard","2","15","LP","2.15079707022835","70.288","72.44","72.807","2.519","0.367","3","246",NA
"91","R_1jVDeeCRSDv5Yjs","standard","2","16","LP","19.8235243429556","73.809","NaN","75.381","1.572","NaN","0","246",NA
"92","R_1jVDeeCRSDv5Yjs","standard","2","17","LP","0.264713485566566","76.386","76.656","77.052","0.666","0.396","3","249",NA
"93","R_1jVDeeCRSDv5Yjs","standard","2","18","LP","2.15079707022835","78.06","80.21","80.787","2.727","0.577","3","252",NA
"94","R_1jVDeeCRSDv5Yjs","standard","2","19","LP","30","81.793","NaN","86.196","4.403","NaN","0","252",NA
"95","R_1jVDeeCRSDv5Yjs","standard","2","20","LP","5.5010771219302","87.201","NaN","91.919","4.718","NaN","0","252",NA
"96","R_1jVDeeCRSDv5Yjs","standard","2","21","LP","19.8235243429556","92.921","NaN","98.351","5.43","NaN","0","252",NA
"97","R_1jVDeeCRSDv5Yjs","standard","2","22","LP","30","99.354","NaN","102.798","3.444","NaN","0","252",NA
"98","R_1jVDeeCRSDv5Yjs","standard","2","23","LP","1.25738905644119","103.801","105.065","105.396","1.595","0.331","3","255",NA
"99","R_1jVDeeCRSDv5Yjs","standard","2","24","LP","8.51632916846187","106.401","NaN","110.479","4.078","NaN","0","255",NA
"100","R_1jVDeeCRSDv5Yjs","standard","2","25","LP","30","111.481","NaN","115.635","4.154","NaN","0","255",NA
"101","R_1jVDeeCRSDv5Yjs","standard","2","26","LP","0.264713485566566","116.641","116.906","117.367","0.726","0.461","3","258",NA
"102","R_1jVDeeCRSDv5Yjs","standard","2","27","LP","0.264713485566566","118.369","118.641","119.007","0.638","0.366","3","261",NA
"103","R_1jVDeeCRSDv5Yjs","standard","2","28","LP","5.5010771219302","120.009","NaN","123.269","3.26","NaN","0","261",NA
"104","R_1jVDeeCRSDv5Yjs","standard","2","29","LP","1.25738905644119","124.274","125.537","125.978","1.704","0.441","3","264",NA
"105","R_1jVDeeCRSDv5Yjs","standard","2","30","LP","3.49090909090909","126.987","NaN","130.425","3.438","NaN","0","264",NA
"106","R_1jVDeeCRSDv5Yjs","standard","2","31","LP","5.5010771219302","131.433","NaN","135.323","3.89","NaN","0","264",NA
"107","R_1jVDeeCRSDv5Yjs","standard","2","32","LP","8.51632916846187","136.329","NaN","140.242","3.913","NaN","0","264",NA
"108","R_1jVDeeCRSDv5Yjs","standard","2","33","LP","19.8235243429556","141.249","NaN","144.908","3.659","NaN","0","264",NA
"109","R_1jVDeeCRSDv5Yjs","standard","2","34","LP","2.15079707022835","145.913","148.065","148.485","2.572","0.42","3","267",NA
"110","R_1jVDeeCRSDv5Yjs","standard","2","35","LP","19.8235243429556","149.489","NaN","152.874","3.385","NaN","0","267",NA
"111","R_1jVDeeCRSDv5Yjs","standard","2","36","LP","2.15079707022835","153.881","156.034","156.422","2.541","0.388","3","270",NA
"112","R_1jVDeeCRSDv5Yjs","standard","2","37","LP","0.264713485566566","157.426","157.697","158.059","0.633","0.362","3","273",NA
"113","R_1jVDeeCRSDv5Yjs","standard","2","38","LP","2.15079707022835","159.065","161.217","161.663","2.598","0.446","3","276",NA
"114","R_1jVDeeCRSDv5Yjs","standard","2","39","LP","5.5010771219302","162.665","NaN","165.833","3.168","NaN","0","276",NA
"115","R_1jVDeeCRSDv5Yjs","standard","2","40","LP","5.5010771219302","166.841","NaN","170.506","3.665","NaN","0","276",NA
"116","R_1jVDeeCRSDv5Yjs","standard","2","41","LP","3.49090909090909","171.513","NaN","174.809","3.296","NaN","0","276",NA
"117","R_1jVDeeCRSDv5Yjs","standard","2","42","LP","3.49090909090909","175.81","179.305","179.336","3.526","0.031","3","279",NA
"118","R_1jVDeeCRSDv5Yjs","standard","2","43","LP","3.49090909090909","180.338","183.835","184.052","3.714","0.217","3","282",NA
"119","R_1jVDeeCRSDv5Yjs","standard","2","44","LP","0.661783713916415","185.057","185.719","186.201","1.144","0.482","3","285",NA
"120","R_1jVDeeCRSDv5Yjs","standard","2","45","LP","1.25738905644119","187.211","188.474","188.832","1.621","0.358","3","288",NA
"121","R_1jVDeeCRSDv5Yjs","standard","2","46","LP","19.8235243429556","189.834","NaN","193.944","4.11","NaN","0","288",NA
"122","R_1jVDeeCRSDv5Yjs","standard","2","47","LP","0.264713485566566","194.946","195.21","195.688","0.742","0.478","3","291",NA
"123","R_1jVDeeCRSDv5Yjs","standard","2","48","LP","3.49090909090909","196.689","200.186","200.531","3.842","0.345","3","294",NA
"124","R_1jVDeeCRSDv5Yjs","standard","2","49","LP","1.25738905644119","201.539","202.802","203.241","1.702","0.439","3","297",NA
"125","R_1jVDeeCRSDv5Yjs","standard","2","50","LP","30","204.249","NaN","208.43","4.181","NaN","0","297",NA
"126","R_1jVDeeCRSDv5Yjs","standard","2","51","LP","1.25738905644119","209.435","210.697","211.087","1.652","0.39","3","300",NA
"127","R_1jVDeeCRSDv5Yjs","standard","2","52","LP","19.8235243429556","212.089","NaN","215.996","3.907","NaN","0","300",NA
"128","R_1jVDeeCRSDv5Yjs","standard","2","53","LP","0.661783713916415","217.002","217.666","218.097","1.095","0.431","3","303",NA
"129","R_1jVDeeCRSDv5Yjs","standard","2","54","LP","1.25738905644119","219.106","220.37","220.722","1.616","0.352","3","306",NA
"130","R_1jVDeeCRSDv5Yjs","standard","2","55","LP","1.25738905644119","221.73","222.994","223.329","1.599","0.335","3","309",NA
"131","R_1jVDeeCRSDv5Yjs","standard","2","56","LP","3.49090909090909","224.33","227.827","228.18","3.85","0.353","3","312",NA
"132","R_1jVDeeCRSDv5Yjs","standard","2","57","LP","8.51632916846187","229.186","NaN","233.094","3.908","NaN","0","312",NA
"133","R_1jVDeeCRSDv5Yjs","standard","2","58","LP","1.25738905644119","234.098","235.361","235.678","1.58","0.317","3","315",NA
"134","R_1jVDeeCRSDv5Yjs","standard","2","59","LP","19.8235243429556","236.681","NaN","240.474","3.793","NaN","0","315",NA
"135","R_1jVDeeCRSDv5Yjs","standard","2","60","LP","2.15079707022835","241.482","243.635","244.006","2.524","0.371","3","318",NA
"136","R_1jVDeeCRSDv5Yjs","standard","2","61","LP","5.5010771219302","245.01","NaN","249.215","4.205","NaN","0","318",NA
"137","R_1jVDeeCRSDv5Yjs","standard","2","62","LP","3.49090909090909","250.218","253.715","254.146","3.928","0.431","3","321",NA
"138","R_1jVDeeCRSDv5Yjs","standard","2","63","LP","0.661783713916415","255.155","255.817","256.299","1.144","0.482","3","324",NA
"139","R_1jVDeeCRSDv5Yjs","standard","2","64","LP","1.25738905644119","257.305","258.569","258.931","1.626","0.362","3","327",NA
"140","R_1jVDeeCRSDv5Yjs","standard","2","65","LP","0.264713485566566","259.94","260.21","260.837","0.897","0.627","3","330",NA
"141","R_1jVDeeCRSDv5Yjs","standard","2","66","LP","30","261.842","NaN","265.279","3.437","NaN","0","330",NA
"142","R_1jVDeeCRSDv5Yjs","standard","2","67","LP","0.661783713916415","266.282","266.946","267.583","1.301","0.637","3","333",NA
"143","R_1jVDeeCRSDv5Yjs","standard","2","68","LP","8.51632916846187","268.586","NaN","272.36","3.774","NaN","0","333",NA
"144","R_1jVDeeCRSDv5Yjs","standard","2","69","LP","2.15079707022835","273.361","275.514","275.94","2.579","0.426","3","336",NA
"145","R_1jVDeeCRSDv5Yjs","standard","2","70","LP","13.0392072382594","276.946","NaN","280.534","3.588","NaN","0","336",NA
"146","R_1jVDeeCRSDv5Yjs","standard","2","71","LP","2.15079707022835","281.538","283.69","284.053","2.515","0.363","3","339",NA
"147","R_1jVDeeCRSDv5Yjs","standard","2","72","LP","19.8235243429556","285.058","NaN","289.362","4.304","NaN","0","339",NA
"148","R_1jVDeeCRSDv5Yjs","standard","2","73","LP","8.51632916846187","290.37","NaN","294.625","4.255","NaN","0","339",NA
"149","R_1jVDeeCRSDv5Yjs","standard","2","74","LP","8.51632916846187","295.625","NaN","299.466","3.841","NaN","0","339",NA
"150","R_1jVDeeCRSDv5Yjs","standard","2","75","LP","13.0392072382594","300.475","NaN","304.187","3.712","NaN","0","339",NA
"151","R_1jVDeeCRSDv5Yjs","standard","2","76","LP","30","305.195","NaN","309.703","4.508","NaN","0","339",NA
"152","R_1jVDeeCRSDv5Yjs","standard","2","77","LP","1.25738905644119","310.707","311.97","312.397","1.69","0.427","3","342",NA
"153","R_1jVDeeCRSDv5Yjs","standard","2","78","LP","3.49090909090909","313.402","316.899","316.947","3.545","0.048","3","345",NA
"154","R_1jVDeeCRSDv5Yjs","standard","2","79","LP","3.49090909090909","317.955","321.45","321.838","3.883","0.388","3","348",NA
"155","R_1jVDeeCRSDv5Yjs","standard","2","80","LP","13.0392072382594","322.842","NaN","326.968","4.126","NaN","0","348",NA
"156","R_1jVDeeCRSDv5Yjs","standard","2","81","LP","2.15079707022835","327.971","330.123","330.586","2.615","0.463","3","351",NA
"157","R_1jVDeeCRSDv5Yjs","standard","2","82","LP","8.51632916846187","331.595","NaN","336.695","5.1","NaN","0","351",NA
"158","R_1jVDeeCRSDv5Yjs","standard","2","83","LP","13.0392072382594","337.698","NaN","341.76","4.062","NaN","0","351",NA
"159","R_1jVDeeCRSDv5Yjs","standard","2","84","LP","5.5010771219302","342.763","NaN","346.77","4.007","NaN","0","351",NA
"160","R_1jVDeeCRSDv5Yjs","standard","2","85","LP","0.661783713916415","347.779","348.442","348.899","1.12","0.457","3","354",NA
"161","R_1jVDeeCRSDv5Yjs","standard","2","86","LP","0.264713485566566","349.909","350.179","350.539","0.63","0.36","3","357",NA
"162","R_1jVDeeCRSDv5Yjs","standard","2","87","LP","19.8235243429556","351.546","NaN","353.171","1.625","NaN","0","357",NA
"163","R_1jVDeeCRSDv5Yjs","standard","2","88","LP","1.25738905644119","354.179","NaN","355.425","1.246","NaN","0","357",NA
"164","R_1jVDeeCRSDv5Yjs","standard","2","89","LP","19.8235243429556","356.426","NaN","358.006","1.58","NaN","0","357",NA
"165","R_1jVDeeCRSDv5Yjs","standard","2","90","LP","30","359.01","NaN","360.143","1.133","NaN","0","357",NA
"166","R_1jVDeeCRSDv5Yjs","standard","2","91","LP","0.264713485566566","361.147","361.411","361.803","0.656","0.392","3","360",NA
"167","R_1jVDeeCRSDv5Yjs","standard","2","92","LP","0.264713485566566","362.811","363.082","363.496","0.685","0.414","3","363",NA
"168","R_1jVDeeCRSDv5Yjs","standard","2","93","LP","2.15079707022835","364.499","366.651","367.022","2.523","0.371","3","366",NA
"169","R_1jVDeeCRSDv5Yjs","standard","2","94","LP","19.8235243429556","368.027","NaN","372.051","4.024","NaN","0","366",NA
"170","R_1jVDeeCRSDv5Yjs","standard","2","95","LP","3.49090909090909","373.059","NaN","376.271","3.212","NaN","0","366",NA
"171","R_1jVDeeCRSDv5Yjs","standard","2","96","LP","13.0392072382594","377.276","NaN","379.946","2.67","NaN","0","366",NA
"172","R_1jVDeeCRSDv5Yjs","standard","2","97","LP","0.661783713916415","380.956","381.619","382.073","1.117","0.454","3","369",NA
"173","R_1jVDeeCRSDv5Yjs","standard","2","98","LP","2.15079707022835","383.076","385.235","385.629","2.553","0.394","3","372",NA
"174","R_1jVDeeCRSDv5Yjs","standard","2","99","LP","0.264713485566566","386.637","386.907","387.341","0.704","0.434","3","375",NA
"175","R_1jVDeeCRSDv5Yjs","standard","2","100","LP","30","388.347","NaN","391.833","3.486","NaN","0","375",NA
"176","R_1jVDeeCRSDv5Yjs","standard","2","101","LP","30","392.835","NaN","395.89","3.055","NaN","0","375",NA
"177","R_1jVDeeCRSDv5Yjs","standard","2","102","LP","8.51632916846187","396.898","NaN","400.666","3.768","NaN","0","375",NA
"178","R_1jVDeeCRSDv5Yjs","standard","2","103","LP","0.264713485566566","401.666","401.938","402.364","0.698","0.426","3","378",NA
"179","R_1jVDeeCRSDv5Yjs","standard","2","104","LP","30","403.371","NaN","407.497","4.126","NaN","0","378",NA
"180","R_1jVDeeCRSDv5Yjs","standard","2","105","LP","2.15079707022835","408.499","410.651","411.048","2.549","0.397","3","381",NA
"181","R_1jVDeeCRSDv5Yjs","standard","2","106","LP","19.8235243429556","412.051","NaN","415.553","3.502","NaN","0","381",NA
"182","R_1jVDeeCRSDv5Yjs","standard","2","107","LP","13.0392072382594","416.555","NaN","420.373","3.818","NaN","0","381",NA
"183","R_1jVDeeCRSDv5Yjs","standard","2","108","LP","0.661783713916415","421.379","422.043","422.661","1.282","0.618","3","384",NA
"184","R_1jVDeeCRSDv5Yjs","standard","2","109","LP","0.264713485566566","423.662","423.931","424.365","0.703","0.434","3","387",NA
"185","R_1jVDeeCRSDv5Yjs","standard","2","110","LP","8.51632916846187","425.371","NaN","428.883","3.512","NaN","0","387",NA
"186","R_1jVDeeCRSDv5Yjs","standard","2","111","LP","5.5010771219302","429.89","NaN","433.413","3.523","NaN","0","387",NA
"187","R_1jVDeeCRSDv5Yjs","standard","2","112","LP","13.0392072382594","434.42","NaN","438.35","3.93","NaN","0","387",NA
"188","R_1jVDeeCRSDv5Yjs","standard","2","113","LP","8.51632916846187","439.356","NaN","442.936","3.58","NaN","0","387",NA
"189","R_1jVDeeCRSDv5Yjs","standard","2","114","LP","13.0392072382594","443.939","NaN","447.456","3.517","NaN","0","387",NA
"190","R_1jVDeeCRSDv5Yjs","standard","2","115","LP","3.49090909090909","448.459","451.955","452.025","3.566","0.07","3","390",NA
"191","R_1jVDeeCRSDv5Yjs","standard","2","116","LP","5.5010771219302","453.029","NaN","457.2","4.171","NaN","0","390",NA
"192","R_1jVDeeCRSDv5Yjs","standard","2","117","LP","2.15079707022835","458.203","460.356","460.799","2.596","0.443","3","393",NA
"193","R_1jVDeeCRSDv5Yjs","standard","2","118","LP","0.264713485566566","461.803","462.076","462.535","0.732","0.459","3","396",NA
"194","R_1jVDeeCRSDv5Yjs","standard","2","119","LP","5.5010771219302","463.539","NaN","467.871","4.332","NaN","0","396",NA
"195","R_1jVDeeCRSDv5Yjs","standard","2","120","LP","19.8235243429556","468.876","NaN","473.036","4.16","NaN","0","396",NA
"196","R_1jVDeeCRSDv5Yjs","standard","2","121","LP","3.49090909090909","474.043","477.54","477.957","3.914","0.417","3","399",NA
"197","R_1jVDeeCRSDv5Yjs","standard","2","122","LP","5.5010771219302","478.964","NaN","483.25","4.286","NaN","0","399",NA
"198","R_1jVDeeCRSDv5Yjs","standard","2","123","LP","1.25738905644119","484.251","485.51","485.94","1.689","0.43","3","402",NA
"199","R_1jVDeeCRSDv5Yjs","standard","2","124","LP","0.661783713916415","486.949","487.611","488.035","1.086","0.424","3","405",NA
"200","R_1jVDeeCRSDv5Yjs","standard","2","125","LP","1.25738905644119","489.044","490.309","490.767","1.723","0.458","3","408",NA
"201","R_1jVDeeCRSDv5Yjs","standard","2","126","LP","30","491.771","NaN","495.659","3.888","NaN","0","408",NA
"202","R_1jVDeeCRSDv5Yjs","standard","2","127","LP","5.5010771219302","496.669","NaN","500.522","3.853","NaN","0","408",NA
"203","R_1jVDeeCRSDv5Yjs","standard","2","128","LP","0.661783713916415","501.523","502.189","502.825","1.302","0.636","3","411",NA
"204","R_1jVDeeCRSDv5Yjs","standard","2","129","LP","8.51632916846187","503.829","NaN","507.961","4.132","NaN","0","411",NA
"205","R_1jVDeeCRSDv5Yjs","standard","2","130","LP","5.5010771219302","508.963","NaN","512.83","3.867","NaN","0","411",NA
"206","R_1jVDeeCRSDv5Yjs","standard","2","131","LP","1.25738905644119","513.836","515.099","515.501","1.665","0.402","3","414",NA
"207","R_1jVDeeCRSDv5Yjs","standard","2","132","LP","2.15079707022835","516.509","518.669","519.073","2.564","0.404","3","417",NA
"208","R_1jVDeeCRSDv5Yjs","standard","2","133","LP","3.49090909090909","520.076","523.571","523.948","3.872","0.377","3","420",NA
"209","R_1jVDeeCRSDv5Yjs","standard","2","134","LP","3.49090909090909","524.956","528.451","529.055","4.099","0.604","3","423",NA
"210","R_1jVDeeCRSDv5Yjs","standard","2","135","LP","1.25738905644119","530.06","531.322","531.944","1.884","0.622","3","426",NA
"211","R_1jVDeeCRSDv5Yjs","standard","2","136","LP","0.661783713916415","532.95","533.612","533.999","1.049","0.387","3","429",NA
"212","R_1jVDeeCRSDv5Yjs","standard","2","137","LP","19.8235243429556","535.003","NaN","536.468","1.465","NaN","0","429",NA
"213","R_1jVDeeCRSDv5Yjs","standard","2","138","LP","13.0392072382594","537.476","NaN","540.989","3.513","NaN","0","429",NA
"214","R_1jVDeeCRSDv5Yjs","standard","2","139","LP","3.49090909090909","541.996","545.492","545.712","3.716","0.22","3","432",NA
"215","R_1jVDeeCRSDv5Yjs","standard","2","140","LP","5.5010771219302","546.716","NaN","550.967","4.251","NaN","0","432",NA
"216","R_1jVDeeCRSDv5Yjs","standard","2","141","LP","19.8235243429556","551.972","NaN","554.829","2.857","NaN","0","432",NA
"217","R_1jVDeeCRSDv5Yjs","standard","2","142","LP","0.661783713916415","555.836","NaN","556.428","0.592","NaN","0","432",NA
"218","R_1jVDeeCRSDv5Yjs","standard","2","143","LP","3.49090909090909","557.437","NaN","558.304","0.867","NaN","0","432",NA
"219","R_1jVDeeCRSDv5Yjs","standard","2","144","LP","0.264713485566566","559.311","559.579","559.989","0.678","0.41","3","435",NA
"220","R_1jVDeeCRSDv5Yjs","standard","2","145","LP","2.15079707022835","560.997","NaN","561.913","0.916","NaN","0","435",NA
"221","R_1jVDeeCRSDv5Yjs","standard","2","146","LP","3.49090909090909","562.916","566.412","566.793","3.877","0.381","3","438",NA
"222","R_1jVDeeCRSDv5Yjs","standard","2","147","LP","2.15079707022835","567.796","569.95","570.316","2.52","0.366","3","441",NA
"223","R_1jVDeeCRSDv5Yjs","standard","2","148","LP","13.0392072382594","571.322","NaN","575.468","4.146","NaN","0","441",NA
"224","R_1jVDeeCRSDv5Yjs","standard","2","149","LP","5.5010771219302","576.476","NaN","579.942","3.466","NaN","0","441",NA
"225","R_1jVDeeCRSDv5Yjs","standard","2","150","LP","1.25738905644119","580.951","582.212","582.581","1.63","0.369","3","444",NA
"226","R_1jVDeeCRSDv5Yjs","standard","2","151","LP","19.8235243429556","583.59","NaN","587.434","3.844","NaN","0","444",NA
"227","R_1jVDeeCRSDv5Yjs","standard","2","152","LP","2.15079707022835","588.436","590.591","591.005","2.569","0.414","3","447",NA
"228","R_1jVDeeCRSDv5Yjs","standard","2","153","LP","30","592.012","NaN","596.522","4.51","NaN","0","447",NA
"229","R_1jVDeeCRSDv5Yjs","standard","2","154","LP","0.264713485566566","597.524","597.797","598.251","0.727","0.454","3","450",NA
