"","subject_id","condition","n_block","n_trialIdx","f_timing_condition","n_scheduled_delay","n_trial_start_time","n_rewarded_time_fin","n_sell_time_fin","n_time_waited_fin","RT_fin","n_trial_earnings_fin","n_total_earnings_fin","keypress_times"
"1","R_1kGjQEXSwSXNItd","standard","1","1","LP","1.25738905644119","0.001","1.268","1.411","1.41","0.143","3","3","c(""554"", ""805"", ""1011"", ""1212"")"
"2","R_1kGjQEXSwSXNItd","standard","1","2","LP","3.49090909090909","2.414","5.912","6.027","3.613","0.115","3","3","c(""6"", ""192"", ""395"", ""612"", ""813"", ""1025"", ""1218"", ""1424"", ""1686"", ""1881"", ""2120"", ""2320"", ""2536"", ""2732"", ""2928"", ""3161"", ""3386"")"
"3","R_1kGjQEXSwSXNItd","standard","1","3","LP","13.0392072382594","7.033","20.099","20.359","13.326","0.26","3","3","c(""19"", ""206"", ""406"", ""597"", ""797"", ""1000"", ""1214"", ""1410"", ""1620"", ""1821"", ""2043"", ""2261"", ""2473"", ""2690"", ""2892"", ""3083"", ""3346"", ""3512"", ""3727"", ""3932"", ""4138"", ""4348"", ""4562"", ""4777"", ""5034"", ""5323"", ""5539"", ""5775"", ""5965"", ""6167"", ""6400"", ""6647"", ""6893"", ""7113"", ""7307"", ""7552"", ""7766"", ""7992"", ""8226"", ""8466"", ""8697"", ""8909"", ""9133"", ""9354"", ""9587"", ""9843"", ""10076"", ""10305"", ""10539"", ""10755"", ""10986"", ""11221"", ""11432"", ""11667"", ""12030"", ""12283"", ""12509"", ""12738"", ""12964"")"
"4","R_1kGjQEXSwSXNItd","standard","1","4","LP","30","21.362","51.395","51.426","30.064","0.031","3","3","c(""7"", ""469"", ""717"", ""939"", ""1156"", ""1375"", ""1598"", ""1802"", ""2034"", ""2521"", ""2865"", ""3157"", ""3841"", ""4032"", ""4195"", ""4358"", ""4520"", ""4676"", ""4847"", ""5019"", ""5453"", ""5600"", ""5768"", ""5932"", ""6020"", ""6149"", ""6333"", ""6512"", ""7115"", ""7356"", ""7540"", ""7727"", ""7933"", ""8375"", ""8585"", ""8753"", ""9184"", ""9440"", ""9606"", ""9760"", ""10133"", ""10381"", ""11987"", ""12216"", ""12375"", ""12553"", ""12772"", ""12977"", ""13381"", ""13631"", ""13840"", ""14074"", ""14244"", ""14431"", ""14627"", ""14810"", ""15275"", ""15456"", ""15654"", ""15838"", ""16037"", 
""16244"", ""16448"", ""16645"", ""16880"", ""17459"", ""17673"", ""17899"", ""18113"", ""18306"", ""18500"", ""18679"", ""18871"", ""19081"", ""19301"", ""19524"", ""19729"", ""19945"", ""20142"", ""20335"", ""20532"", ""20738"", ""20961"", ""21167"", ""21353"", ""21550"", ""21773"", ""21977"", ""22196"", ""22389"", ""22572"", ""22748"", ""22983"", ""23172"", ""23374"", ""23577"", ""23814"", ""24015"", ""24222"", ""24425"", ""24624"", ""24817"", ""25025"", ""25212"", ""25409"", ""25633"", ""25814"", ""26057"", ""26316"", ""26548"", ""26770"", ""27024"", ""27248"", ""27475"", ""27694"", ""27887"", ""28076"", 
""28275"", ""28464"", ""28653"", ""28847"", ""29083"", ""29404"", ""29766"")"
"5","R_1kGjQEXSwSXNItd","standard","1","5","LP","13.0392072382594","52.431","65.893","NA","15.47","NA","0","0","c(""71"", ""326"", ""698"", ""1047"", ""1261"", ""1473"", ""1716"", ""1944"", ""2244"", ""2506"")"
"6","R_1kGjQEXSwSXNItd","standard","1","6","LP","0.264713485566566","68.902","69.708","NA","1.814","NA","0","0",""
"7","R_1kGjQEXSwSXNItd","standard","1","7","LP","3.49090909090909","71.723","75.222","75.246","3.523","0.024","3","3","c(""23"", ""209"", ""387"", ""561"", ""731"", ""893"", ""1043"", ""1208"", ""1398"", ""2479"", ""2682"", ""2839"", ""2986"", ""3149"", ""3338"")"
"8","R_1kGjQEXSwSXNItd","standard","1","8","LP","0.264713485566566","76.251","76.517","76.645","0.394","0.128","3","3","c(""4"", ""190"")"
"9","R_1kGjQEXSwSXNItd","standard","1","9","LP","0.264713485566566","77.652","77.923","78.045","0.393","0.122","3","3","c(""43"", ""226"")"
"10","R_1kGjQEXSwSXNItd","standard","1","10","LP","19.8235243429556","79.051","98.907","NA","21.871","NA","0","0","c(""123"", ""317"", ""534"", ""725"", ""894"", ""1078"", ""1263"", ""1445"", ""1624"", ""1807"", ""2038"", ""2188"", ""2412"", ""2599"", ""2772"", ""2968"", ""3163"", ""3350"", ""3536"", ""3711"", ""3886"", ""4061"", ""4318"", ""4536"", ""4985"", ""5187"", ""5408"", ""5602"", ""5820"", ""6210"", ""6391"", ""6554"", ""6724"", ""6984"", ""7077"", ""7235"", ""7372"", ""7534"", ""7765"", ""7872"", ""8080"", ""8276"", ""8504"", ""8784"", ""16690"", ""16895"", ""17108"", ""17311"", ""17511"", ""17709"", ""17903"", ""18094"", ""18304"", ""18500"", ""18738"")"
"11","R_1kGjQEXSwSXNItd","standard","1","11","LP","0.661783713916415","101.904","102.92","NA","2.019","NA","0","0",""
"12","R_1kGjQEXSwSXNItd","standard","1","12","LP","19.8235243429556","104.931","124.762","124.957","20.026","0.195","3","3","c(""22"", ""206"", ""413"", ""604"", ""808"", ""998"", ""1200"", ""1390"", ""2025"", ""2216"", ""2411"", ""2584"", ""2780"", ""2960"", ""3158"", ""3344"", ""3522"", ""3705"", ""3894"", ""4090"", ""4289"", ""4497"", ""4769"", ""4984"", ""5160"", ""5358"", ""5551"", ""5801"", ""5990"", ""6200"", ""6391"", ""6568"", ""6783"", ""6992"", ""7177"", ""7374"", ""7603"", ""7808"", ""8004"", ""8255"", ""8411"", ""8634"", ""9273"", ""9488"", ""9668"", ""9918"", ""10127"", ""10314"", ""10488"", ""10694"", ""10896"", ""11106"", ""11327"", ""11544"", ""11756"", ""11946"", ""12163"", ""12365"", ""12541"", ""12812"", ""13051"", ""13280"", 
""13532"", ""14154"", ""14384"", ""14624"", ""14836"", ""15099"", ""15320"", ""15543"", ""15772"", ""15990"", ""16195"", ""16394"", ""16590"", ""16790"", ""17013"", ""17229"", ""17437"", ""17630"", ""17838"", ""18049"", ""18443"", ""18706"", ""19014"", ""19311"", ""19540"", ""19788"")"
"13","R_1kGjQEXSwSXNItd","standard","1","13","LP","0.264713485566566","125.964","126.235","126.314","0.35","0.079","3","3","142"
"14","R_1kGjQEXSwSXNItd","standard","1","14","LP","2.15079707022835","127.315","129.469","NA","3.583","NA","0","0","c(""57"", ""274"", ""472"", ""674"", ""874"", ""1069"", ""1306"", ""1516"", ""1742"", ""1959"")"
"15","R_1kGjQEXSwSXNItd","standard","1","15","LP","8.51632916846187","131.895","140.893","NA","10.005","NA","0","0",""
"16","R_1kGjQEXSwSXNItd","standard","1","16","LP","13.0392072382594","143.901","156.957","156.982","13.081","0.025","3","3","c(""3628"", ""3790"", ""3976"", ""4189"", ""4638"", ""4845"", ""5267"", ""5914"", ""6104"", ""6268"", ""6427"", ""6595"", ""6751"", ""6923"", ""7081"", ""7243"", ""7412"", ""7993"", ""8176"", ""8358"", ""8730"", ""8931"", ""9136"", ""9337"", ""9545"", ""9744"", ""10004"", ""10196"", ""10413"", ""10619"", ""10819"", ""11031"", ""11257"", ""11462"", ""11652"", ""11839"", ""11980"", ""12181"", ""12495"", ""12661"", ""12874"")"
"17","R_1kGjQEXSwSXNItd","standard","1","17","LP","0.264713485566566","157.987","158.259","158.362","0.375","0.103","3","3","192"
"18","R_1kGjQEXSwSXNItd","standard","1","18","LP","2.15079707022835","159.366","161.531","161.592","2.226","0.061","3","3","c(""129"", ""312"", ""478"", ""659"", ""864"", ""1072"", ""1287"", ""1481"", ""1661"", ""1849"", ""2035"")"
"19","R_1kGjQEXSwSXNItd","standard","1","19","LP","19.8235243429556","162.596","182.9","NA","22.321","NA","0","0","c(""177"", ""348"", ""543"", ""764"", ""945"", ""1158"", ""1367"", ""1570"", ""1788"", ""1984"", ""2197"", ""2390"", ""2590"", ""2787"", ""2977"", ""3184"", ""3376"", ""3558"", ""3756"", ""3977"", ""4199"", ""4397"", ""4605"", ""4838"", ""5067"", ""5279"", ""5481"", ""5709"", ""5928"", ""6133"", ""6343"", ""6557"", ""6764"", ""6979"", ""7177"", ""7366"", ""7561"")"
"20","R_1kGjQEXSwSXNItd","standard","1","20","LP","1.25738905644119","186.039","187.302","187.344","1.305","0.042","3","3","c(""487"", ""717"", ""913"", ""1104"")"
"21","R_1kGjQEXSwSXNItd","standard","1","21","LP","0.264713485566566","188.35","188.623","188.722","0.372","0.099","3","3","177"
"22","R_1kGjQEXSwSXNItd","standard","1","22","LP","0.264713485566566","189.726","190.004","190.096","0.37","0.092","3","3","159"
"23","R_1kGjQEXSwSXNItd","standard","1","23","LP","1.25738905644119","191.119","192.382","192.525","1.406","0.143","3","3","c(""180"", ""387"", ""583"", ""774"", ""951"", ""1190"")"
"24","R_1kGjQEXSwSXNItd","standard","1","24","LP","0.661783713916415","193.527","194.19","194.363","0.836","0.173","3","3","c(""33"", ""245"", ""431"", ""634"")"
"25","R_1kGjQEXSwSXNItd","standard","1","25","LP","3.49090909090909","195.365","198.866","198.887","3.522","0.021","3","3","c(""27"", ""218"", ""417"", ""616"", ""822"", ""1123"", ""1356"", ""1519"", ""1701"", ""1883"", ""2100"", ""2259"", ""2393"", ""2528"", ""2678"", ""2835"", ""2994"", ""3182"", ""3355"")"
"26","R_1kGjQEXSwSXNItd","standard","1","26","LP","13.0392072382594","199.894","213.916","NA","16.039","NA","0","0","c(""33"", ""230"", ""394"", ""567"", ""727"", ""892"", ""1036"", ""1188"", ""1341"", ""1507"", ""1696"", ""1888"", ""2072"", ""2235"", ""2408"", ""2567"", ""2719"", ""2873"", ""3032"", ""3233"", ""3375"", ""3543"", ""3709"", ""3875"", ""4044"", ""4214"", ""4375"", ""4538"", ""4689"", ""4840"", ""5004"", ""5173"", ""5349"", ""5519"", ""5683"", ""5928"", ""6102"", ""6324"", ""6544"", ""6738"", ""6911"", ""7095"", ""7259"", ""7467"", ""7701"", ""7861"", ""8022"", ""8198"", ""8366"", ""8554"", ""8769"", ""8976"", ""9172"", ""9358"", ""9549"", ""9748"", ""9945"", ""10135"", ""10330"", ""10516"", ""10716"", ""10884"")"
"27","R_1kGjQEXSwSXNItd","standard","1","27","LP","1.25738905644119","217.894","219.894","NA","3.001","NA","0","0",""
"28","R_1kGjQEXSwSXNItd","standard","1","28","LP","8.51632916846187","221.901","230.43","230.487","8.586","0.057","3","3","c(""5198"", ""5416"", ""5635"", ""5835"", ""6037"", ""6214"", ""6404"", ""6594"", ""6801"", ""7004"", ""7215"", ""7407"", ""7590"", ""7764"", ""7968"", ""8189"", ""8399"")"
"29","R_1kGjQEXSwSXNItd","standard","1","29","LP","2.15079707022835","231.495","233.652","233.751","2.256","0.099","3","3","c(""161"", ""353"", ""547"", ""748"", ""953"", ""1190"", ""1403"", ""1623"", ""1827"", ""2038"")"
"30","R_1kGjQEXSwSXNItd","standard","1","30","LP","0.264713485566566","234.761","235.033","235.204","0.443","0.171","3","3","c(""22"", ""224"")"
"31","R_1kGjQEXSwSXNItd","standard","1","31","LP","0.661783713916415","236.208","236.872","237.007","0.799","0.135","3","3","c(""39"", ""227"", ""408"", ""582"")"
"32","R_1kGjQEXSwSXNItd","standard","1","32","LP","3.49090909090909","238.04","241.899","NA","5.856","NA","0","3",""
"33","R_1kGjQEXSwSXNItd","standard","1","33","LP","30","245.922","276.903","NA","32.989","NA","0","0","c(""7905"", ""8113"", ""8276"", ""8458"", ""8659"", ""8885"", ""9103"", ""9330"", ""9538"", ""9745"", ""9923"", ""10105"", ""10288"", ""10520"", ""10727"", ""10912"", ""11105"", ""11295"", ""11477"", ""11665"", ""11855"", ""12051"", ""12261"", ""12447"", ""12631"", ""12826"", ""13001"", ""13193"", ""13419"")"
"34","R_1kGjQEXSwSXNItd","standard","1","34","LP","5.5010771219302","279.879","285.918","NA","8.034","NA","0","0","c(""455"", ""715"", ""899"", ""1090"", ""1272"", ""1481"", ""1667"", ""1857"", ""2052"", ""2256"", ""2432"", ""2641"", ""3766"", ""3953"", ""4131"")"
"35","R_1kGjQEXSwSXNItd","standard","1","35","LP","19.8235243429556","289.898","309.898","NA","21.001","NA","0","0",""
"36","R_1kGjQEXSwSXNItd","standard","1","36","LP","0.661783713916415","311.907","312.57","312.612","0.705","0.042","3","3","454"
"37","R_1kGjQEXSwSXNItd","standard","1","37","LP","8.51632916846187","313.62","322.912","NA","10.787","NA","0","0","c(""129"", ""331"", ""522"", ""724"", ""927"", ""1114"", ""1314"", ""1515"", ""1710"", ""1917"", ""2113"", ""2337"", ""2550"", ""2753"", ""2963"", ""3167"", ""3376"", ""3573"", ""3776"", ""3967"", ""4156"", ""4347"", ""4555"", ""4744"", ""4935"", ""5119"", ""5325"", ""5523"", ""5741"", ""5935"", ""6161"", ""6368"", ""6549"")"
"38","R_1kGjQEXSwSXNItd","standard","1","38","LP","1.25738905644119","325.41","326.678","326.727","1.317","0.049","3","3","c(""22"", ""265"", ""523"", ""835"", ""1090"")"
"39","R_1kGjQEXSwSXNItd","standard","1","39","LP","8.51632916846187","327.73","336.9","NA","11.17","NA","0","0","c(""83"", ""340"", ""554"", ""762"", ""991"", ""1213"")"
"40","R_1kGjQEXSwSXNItd","standard","1","40","LP","5.5010771219302","339.899","345.898","NA","7.008","NA","0","0",""
"41","R_1kGjQEXSwSXNItd","standard","1","41","LP","13.0392072382594","348.904","362.9","NA","16.04","NA","0","0","c(""8586"", ""8943"", ""9132"", ""9446"", ""9879"", ""10177"", ""10516"", ""10759"", ""11029"")"
"42","R_1kGjQEXSwSXNItd","standard","1","42","LP","13.0392072382594","364.945","378.901","NA","15.971","NA","0","0","c(""128"", ""397"", ""650"", ""835"", ""1403"", ""1603"", ""1791"", ""1971"", ""2144"", ""2314"", ""2462"", ""2705"", ""2864"")"
"43","R_1kGjQEXSwSXNItd","standard","1","43","LP","2.15079707022835","380.916","383.9","NA","3.992","NA","0","0",""
"44","R_1kGjQEXSwSXNItd","standard","1","44","LP","0.264713485566566","386.9","387.904","NA","2.08","NA","0","0",""
"45","R_1kGjQEXSwSXNItd","standard","1","45","LP","2.15079707022835","389.987","392.915","NA","4.914","NA","0","0","c(""69"", ""265"", ""453"")"
"46","R_1kGjQEXSwSXNItd","standard","1","46","LP","19.8235243429556","395.909","415.906","416.465","20.556","0.559","3","3","c(""884"", ""1282"", ""1531"", ""1738"", ""1993"", ""2200"", ""2402"", ""2604"", ""2798"", ""3003"", ""3232"", ""15821"", ""16037"", ""16214"", ""16407"", ""16583"", ""16844"", ""17034"", ""17250"", ""17466"", ""17683"", ""17897"", ""18137"")"
"47","R_1kGjQEXSwSXNItd","standard","1","47","LP","1.25738905644119","417.469","418.733","418.754","1.285","0.021","3","3","c(""23"", ""236"", ""439"", ""666"", ""873"", ""1079"")"
"48","R_1kGjQEXSwSXNItd","standard","1","48","LP","3.49090909090909","419.905","423.901","NA","5.998","NA","0","3",""
"49","R_1kGjQEXSwSXNItd","standard","1","49","LP","3.49090909090909","426.906","430.901","NA","5.002","NA","0","3",""
"50","R_1kGjQEXSwSXNItd","standard","1","50","LP","0.264713485566566","433.912","434.628","435.538","1.626","0.91","3","6",""
"51","R_1kGjQEXSwSXNItd","standard","1","51","LP","2.15079707022835","436.541","438.697","438.861","2.32","0.164","3","3","c(""167"", ""366"", ""577"", ""763"", ""941"", ""1153"", ""1345"", ""1545"", ""1741"", ""1939"", ""2138"")"
"52","R_1kGjQEXSwSXNItd","standard","1","52","LP","1.25738905644119","439.869","441.137","441.341","1.472","0.204","3","3","c(""132"", ""336"", ""520"", ""707"", ""889"", ""1079"", ""1266"")"
"53","R_1kGjQEXSwSXNItd","standard","1","53","LP","0.661783713916415","442.914","443.912","NA","2.999","NA","0","3",""
"54","R_1kGjQEXSwSXNItd","standard","1","54","LP","19.8235243429556","446.919","466.767","466.803","19.884","0.036","3","3","c(""34"", ""235"", ""424"", ""614"", ""821"", ""1023"", ""1218"", ""1398"", ""1580"", ""1762"", ""1966"", ""2157"", ""2353"", ""2539"", ""2722"", ""2900"", ""3094"", ""3288"", ""3494"", ""3684"", ""3863"", ""4054"", ""4232"", ""4418"", ""4600"", ""4799"", ""4991"", ""13149"", ""13401"", ""13592"", ""13785"", ""13972"", ""14158"", ""14344"", ""14530"", ""14721"", ""14915"", ""15109"", ""15302"", ""15490"", ""15676"", ""15867"", ""16060"", ""16279"", ""16685"", ""16927"", ""17141"", ""17316"", ""17542"", ""17774"", ""17983"", ""18184"", ""18380"", ""18570"", ""18747"", ""18956"", ""19146"", ""19325"", ""19518"", ""19707""
)"
"55","R_1kGjQEXSwSXNItd","standard","1","55","LP","8.51632916846187","467.805","476.336","476.59","8.785","0.254","3","3","c(""59"", ""275"", ""477"", ""712"", ""4179"", ""4578"", ""4810"", ""4993"", ""5187"", ""5390"", ""5618"", ""5829"", ""6041"", ""6247"", ""6456"", ""6647"", ""6845"", ""7045"", ""7256"", ""7452"", ""7678"", ""7882"", ""8095"", ""8317"")"
"56","R_1kGjQEXSwSXNItd","standard","1","56","LP","30","477.598","507.806","508.706","31.108","0.9","3","3","c(""163"", ""353"", ""553"", ""774"", ""982"", ""1210"", ""1431"", ""1634"", ""1833"", ""2026"", ""2208"", ""2409"", ""2609"", ""2835"", ""3060"", ""3313"", ""3525"", ""3723"", ""10508"", ""10810"", ""11015"", ""11213"", ""11404"", ""11597"", ""11805"", ""12007"", ""12212"", ""12411"", ""12615"", ""12818"", ""13017"", ""13209"", ""13402"", ""13598"", ""13803"", ""14009"", ""14217"", ""14413"", ""14614"", ""14810"", ""14996"", ""15179"", ""15368"", ""15819"", ""16048"", ""16247"", ""16470"", ""16664"", ""16855"", ""17052"", ""17252"", ""17437"", ""17642"", ""17841"", ""18028"", ""18217"", ""18414"", ""18615"", 
""18833"", ""19032"", ""19243"", ""19447"", ""19646"", ""19841"", ""20051"", ""20273"", ""20467"", ""20722"")"
"57","R_1kGjQEXSwSXNItd","standard","1","57","LP","30","509.711","539.732","539.754","30.043","0.022","3","3","c(""151"", ""343"", ""520"", ""703"", ""921"", ""1126"", ""1309"", ""1497"", ""1694"", ""1880"", ""2052"", ""2240"", ""2446"", ""2645"", ""2859"", ""3058"", ""3255"", ""3462"", ""3664"", ""3883"", ""4121"", ""4339"", ""4553"", ""4795"", ""5131"", ""5703"", ""7853"", ""8536"", ""8709"", ""8905"", ""9111"", ""9321"", ""9530"", ""9754"", ""9954"", ""10175"", ""10382"", ""10587"", ""10802"", ""11001"", ""11204"", ""11409"", ""11607"", ""11840"", ""12042"", ""12254"", ""12463"", ""12664"", ""17893"", ""18111"", ""18326"", ""18503"", ""18705"", ""18905"", ""19097"", ""19319"", ""19552"", ""19752"", ""19974"", ""20184"", 
""20388"", ""20588"", ""20792"", ""20995"", ""21186"", ""21426"", ""21675"", ""21896"", ""22114"", ""22351"", ""22559"", ""22761"", ""22971"", ""23173"", ""23386"", ""23781"", ""24437"", ""24676"", ""24891"", ""25111"", ""25341"", ""25563"", ""25768"", ""25991"", ""26215"", ""26428"", ""26649"", ""26875"", ""27105"", ""27324"", ""27529"", ""27735"", ""27956"", ""28201"", ""28411"", ""28649"", ""28894"", ""29132"", ""29372"", ""29601"", ""29828"")"
"58","R_1kGjQEXSwSXNItd","standard","1","58","LP","19.8235243429556","540.76","560.905","NA","22.155","NA","0","0","c(""187"", ""419"")"
"59","R_1kGjQEXSwSXNItd","standard","1","59","LP","0.661783713916415","563.916","564.915","NA","2","NA","0","0",""
"60","R_1kGjQEXSwSXNItd","standard","1","60","LP","0.264713485566566","567.913","568.904","NA","2.002","NA","0","0",""
"61","R_1kGjQEXSwSXNItd","standard","1","61","LP","0.264713485566566","571.905","572.904","NA","2.002","NA","0","0",""
"62","R_1kGjQEXSwSXNItd","standard","1","62","LP","0.264713485566566","575.911","576.914","NA","2.437","NA","0","0",""
"63","R_1kGjQEXSwSXNItd","standard","1","63","LP","8.51632916846187","579.353","587.879","587.916","8.563","0.037","3","3","c(""87"", ""288"", ""486"", ""680"", ""881"", ""1084"", ""1282"", ""1477"", ""1665"", ""1858"", ""2052"", ""2249"", ""2436"", ""2630"", ""2869"", ""5626"", ""5902"", ""6095"", ""6291"", ""6499"", ""6680"", ""6936"", ""7149"", ""7357"", ""7557"", ""7750"", ""7945"", ""8155"", ""8348"")"
"64","R_1kGjQEXSwSXNItd","standard","1","64","LP","30","588.922","619.921","NA","33.017","NA","0","0","c(""44"", ""262"", ""466"", ""671"", ""868"", ""1074"", ""1298"", ""1524"", ""1732"", ""1956"", ""2164"", ""2398"", ""2586"", ""2782"", ""2970"", ""3185"", ""3394"", ""3608"", ""3827"", ""4036"", ""4234"", ""4432"", ""4653"", ""4850"", ""5070"", ""5283"", ""5510"", ""5700"", ""5975"", ""6287"", ""6573"", ""6850"", ""7081"", ""7281"", ""7495"", ""7691"")"
"65","R_1kGjQEXSwSXNItd","standard","1","65","LP","5.5010771219302","623.91","629.421","629.548","5.638","0.127","3","3","c(""3631"", ""3898"", ""4105"", ""4303"", ""4500"", ""4695"", ""4891"", ""5084"", ""5279"", ""5456"")"
"66","R_1kGjQEXSwSXNItd","standard","1","66","LP","1.25738905644119","630.554","631.84","632.294","1.74","0.454","3","3","c(""139"", ""329"", ""536"", ""733"", ""947"")"
"67","R_1kGjQEXSwSXNItd","standard","1","67","LP","8.51632916846187","633.298","641.93","NA","10.624","NA","0","0","c(""92"", ""384"", ""618"", ""843"", ""1044"", ""1237"", ""1425"", ""1631"", ""1823"", ""2007"", ""2211"", ""2413"", ""2608"", ""2819"", ""3008"", ""3205"", ""3395"", ""3964"", ""4265"", ""4511"", ""4841"")"
"68","R_1kGjQEXSwSXNItd","standard","1","68","LP","2.15079707022835","644.922","647.905","NA","3.986","NA","0","0",""
"69","R_1kGjQEXSwSXNItd","standard","1","69","LP","19.8235243429556","649.915","669.748","669.766","19.851","0.018","3","3","c(""2900"", ""3107"", ""3297"", ""3465"", ""3623"", ""3786"", ""3943"", ""4136"", ""4339"", ""4527"", ""4726"", ""4912"", ""5112"", ""5320"", ""5478"", ""5669"", ""5858"", ""6068"", ""6257"", ""6457"", ""6638"", ""6821"", ""6992"", ""7166"", ""7334"", ""7552"", ""7749"", ""7928"", ""8133"", ""8571"", ""8779"", ""8976"", ""9206"", ""9464"", ""9671"", ""9885"", ""10074"", ""10271"", ""10452"", ""10659"", ""10879"", ""11084"", ""11296"", ""11501"", ""11705"", ""11899"", ""12104"", ""12300"", ""12506"", ""12703"", ""12903"", ""13107"", ""13301"", ""13510"", ""13734"", ""13957"", ""14165"", ""14358"", ""14556"", ""14740"", 
""14938"", ""15144"", ""15346"", ""15544"", ""15765"", ""15960"", ""16169"", ""16386"", ""16596"", ""16805"", ""16995"", ""17189"", ""17443"", ""17663"", ""17866"", ""18058"", ""18307"", ""18561"", ""18786"", ""19015"", ""19231"", ""19438"", ""19650"")"
"70","R_1kGjQEXSwSXNItd","standard","1","70","LP","13.0392072382594","670.773","683.816","684.03","13.257","0.214","3","3","c(""165"", ""388"", ""606"", ""800"", ""1006"", ""1225"", ""1416"", ""1626"", ""1856"", ""2058"", ""2258"", ""2468"", ""2684"", ""2884"", ""3104"", ""13025"")"
"71","R_1kGjQEXSwSXNItd","standard","1","71","LP","3.49090909090909","685.044","688.537","688.603","3.559","0.066","3","3","c(""95"", ""301"", ""495"", ""687"", ""872"", ""1063"", ""1257"", ""1443"", ""1648"", ""1834"", ""2018"", ""2201"", ""2395"", ""2592"", ""2770"", ""2956"", ""3168"", ""3346"")"
"72","R_1kGjQEXSwSXNItd","standard","1","72","LP","30","689.628","719.932","NA","32.332","NA","0","0","c(""21"", ""253"", ""513"", ""737"", ""983"", ""1231"", ""1491"", ""1985"", ""2218"", ""2409"", ""2604"", ""2803"", ""2995"", ""3196"", ""3389"", ""3604"", ""3809"", ""4029"", ""4252"", ""4513"", ""4734"", ""4995"", ""5243"", ""5471"", ""5677"", ""5882"", ""6100"", ""6315"", ""6513"", ""6725"", ""6964"", ""7198"", ""7432"", ""7697"", ""7932"", ""8241"", ""8470"", ""8718"", ""8990"", ""9308"", ""9540"", ""9743"", ""9958"", ""10155"", ""10356"", ""10577"", ""10791"", ""11026"", ""11276"", ""11522"", ""11720"", ""11977"", ""12249"", ""12503"", ""12741"", ""12982"", ""13224"", ""13476"", ""13686"", ""13918"", ""14133"", 
""14346"", ""14544"", ""14743"", ""14941"", ""15141"", ""15370"", ""15576"", ""15830"", ""16041"", ""16252"", ""16472"", ""16675"", ""16876"", ""17179"", ""17399"", ""17635"", ""17851"", ""18091"", ""18301"", ""18511"", ""18707"", ""18902"", ""19116"", ""19291"", ""19592"", ""19839"", ""20069"", ""20322"", ""21210"", ""21459"", ""21658"", ""21875"", ""22105"", ""22319"", ""22545"", ""22769"", ""22991"", ""23232"", ""23462"", ""23659"", ""23866"", ""24088"", ""24326"", ""24551"", ""24764"", ""24967"", ""25167"", ""25359"", ""25550"", ""25730"", ""25928"", ""26105"", ""26286"")"
"73","R_1kGjQEXSwSXNItd","standard","1","73","LP","0.661783713916415","722.919","723.583","723.709","0.79","0.126","3","3","c(""85"", ""246"", ""442"", ""614"")"
"74","R_1kGjQEXSwSXNItd","standard","1","74","LP","19.8235243429556","724.728","744.569","744.612","19.884","0.043","3","3","c(""32"", ""205"", ""388"", ""549"", ""742"", ""925"", ""1107"", ""1306"", ""1495"", ""1679"", ""1858"", ""2031"", ""2204"", ""2417"", ""2615"", ""2816"", ""3014"", ""3211"", ""3404"", ""3599"", ""3793"", ""3981"", ""4153"", ""18527"", ""18672"", ""18818"", ""19012"", ""19193"", ""19325"", ""19446"", ""19587"", ""19730"")"
"75","R_1kGjQEXSwSXNItd","standard","1","75","LP","2.15079707022835","745.631","747.794","NA","3.288","NA","0","0","c(""36"", ""221"", ""456"", ""647"", ""832"", ""1007"", ""1183"", ""1358"", ""1534"", ""1700"", ""1860"", ""2087"")"
"76","R_1kGjQEXSwSXNItd","standard","1","76","LP","5.5010771219302","750.91","756.928","NA","8.002","NA","0","0",""
"77","R_1kGjQEXSwSXNItd","standard","1","77","LP","0.264713485566566","760.922","761.192","761.794","0.872","0.602","3","3",""
"78","R_1kGjQEXSwSXNItd","standard","1","78","LP","8.51632916846187","762.798","771.912","NA","11.119","NA","0","0","c(""64"", ""506"", ""712"", ""949"")"
"79","R_1kGjQEXSwSXNItd","standard","1","79","LP","30","774.928","804.944","805.021","30.093","0.077","3","3","c(""3597"", ""3804"", ""3993"", ""4173"", ""4357"", ""4528"", ""4721"", ""4892"", ""8113"", ""8350"", ""8557"", ""8750"", ""8935"", ""9135"", ""9316"", ""9530"", ""9729"", ""9926"", ""10124"", ""10307"", ""10528"", ""10709"", ""12385"", ""12606"", ""12777"", ""12953"", ""13256"", ""13385"", ""13495"", ""13638"", ""13775"", ""13887"", ""14035"", ""14213"", ""14623"", ""14847"", ""15025"", ""15211"", ""15421"", ""15585"", ""15785"", ""15961"", ""16163"", ""16367"", ""16580"", ""16793"", ""16992"", ""17195"", ""17410"", ""17627"", ""17843"", ""18061"", ""18266"", ""18462"", ""18670"", ""18891"", ""19147"", ""19369"", 
""19623"", ""19866"", ""20106"", ""20342"", ""20540"", ""20757"", ""20949"", ""21168"", ""24014"", ""24269"", ""24456"", ""24653"", ""24833"", ""25437"", ""25644"", ""25817"", ""26000"", ""26215"", ""26394"", ""26551"", ""26722"", ""26882"", ""27048"", ""27203"", ""27364"", ""27520"", ""27693"", ""27849"", ""27998"", ""28167"", ""28467"", ""28591"", ""28746"", ""28910"", ""29072"", ""29229"", ""29394"", ""29561"", ""29725"", ""29918"")"
"80","R_1kGjQEXSwSXNItd","standard","1","80","LP","0.661783713916415","806.024","806.687","806.736","0.712","0.049","3","3","c(""58"", ""213"", ""374"", ""541"")"
"81","R_1kGjQEXSwSXNItd","standard","1","81","LP","8.51632916846187","807.738","816.268","816.352","8.614","0.084","3","3","c(""84"", ""243"", ""396"", ""534"", ""680"", ""995"", ""1179"", ""1361"", ""1533"", ""1703"", ""1793"", ""1875"", ""1977"", ""2178"", ""2273"", ""2392"", ""2495"", ""2672"", ""2799"", ""2988"", ""3104"", ""3320"", ""3527"", ""3747"", ""3949"", ""4180"", ""4321"", ""4518"", ""4600"", ""4721"", ""4788"", ""4921"", ""4985"", ""5103"", ""5168"", ""5290"", ""5383"", ""5501"", ""5614"", ""5730"", ""5934"", ""6046"", ""6160"", ""6267"", ""6725"", ""6937"", ""7175"", ""8393"")"
"82","R_1kGjQEXSwSXNItd","standard","1","82","LP","13.0392072382594","817.356","830.412","830.572","13.216","0.16","3","3","c(""77"", ""286"", ""490"", ""698"", ""1022"", ""1114"", ""1341"", ""1563"", ""1770"", ""1994"", ""2249"", ""2503"", ""2723"", ""2958"", ""3210"", ""3439"", ""3894"", ""3897"", ""4114"", ""4542"", ""4915"", ""5163"", ""5388"", ""5661"", ""5874"", ""6097"", ""6332"", ""6569"", ""6903"", ""7102"", ""7385"", ""7612"", ""7859"", ""8124"", ""8366"", ""8678"", ""8789"", ""9019"", ""9253"", ""9475"", ""9998"", ""10254"", ""10532"", ""10776"", ""11148"", ""11369"", ""11944"", ""12167"", ""12507"")"
"83","R_1kGjQEXSwSXNItd","standard","1","83","LP","0.661783713916415","831.575","832.241","832.308","0.733","0.067","3","3","c(""97"", ""278"", ""517"")"
"84","R_1kGjQEXSwSXNItd","standard","1","84","LP","2.15079707022835","833.313","835.465","835.967","2.654","0.502","3","3","c(""832"", ""1052"")"
"85","R_1kGjQEXSwSXNItd","standard","1","85","LP","19.8235243429556","836.977","856.93","NA","21.958","NA","0","0","c(""1162"", ""1481"", ""1741"", ""1973"", ""2183"", ""2379"", ""2578"", ""2785"", ""3001"", ""3251"", ""3499"", ""3920"", ""4146"", ""4386"", ""4647"", ""5164"", ""5384"", ""5607"", ""6529"", ""8326"", ""8676"", ""8926"", ""9184"", ""9423"", ""9889"", ""10120"", ""10362"", ""10849"", ""11517"", ""11948"", ""12205"", ""12451"", ""12661"", ""12867"", ""13073"", ""13294"", ""13530"", ""13731"", ""13921"", ""14129"", ""14320"", ""14510"", ""14746"")"
"86","R_1kGjQEXSwSXNItd","standard","1","86","LP","2.15079707022835","859.953","862.915","NA","3.97","NA","0","0",""
"87","R_1kGjQEXSwSXNItd","standard","1","87","LP","5.5010771219302","864.93","870.44","870.468","5.538","0.028","3","3","c(""61"", ""263"", ""467"", ""652"", ""857"", ""1064"", ""1452"", ""1679"", ""1860"", ""2032"", ""2208"", ""2396"", ""2613"", ""2832"", ""3007"", ""3196"", ""3394"", ""3597"", ""3804"", ""3991"", ""4173"", ""4368"", ""4559"", ""4760"", ""4947"", ""5146"", ""5346"")"
"88","R_1kGjQEXSwSXNItd","standard","1","88","LP","2.15079707022835","871.473","873.639","873.659","2.186","0.02","3","3","c(""112"", ""308"", ""514"", ""711"", ""889"", ""1077"", ""1254"", ""1446"", ""1628"", ""1810"", ""2004"")"
"89","R_1kGjQEXSwSXNItd","standard","2","1","LP","1.25738905644119","0","NaN","0.282","0.282","NaN","0","3",NA
"90","R_1kGjQEXSwSXNItd","standard","2","2","LP","19.8235243429556","1.289","NaN","1.339","0.05","NaN","0","3",NA
"91","R_1kGjQEXSwSXNItd","standard","2","3","LP","19.8235243429556","2.345","NaN","2.445","0.1","NaN","0","3",NA
"92","R_1kGjQEXSwSXNItd","standard","2","4","LP","13.0392072382594","3.449","NaN","3.576","0.127","NaN","0","3",NA
"93","R_1kGjQEXSwSXNItd","standard","2","5","LP","8.51632916846187","4.586","NaN","4.765","0.179","NaN","0","3",NA
"94","R_1kGjQEXSwSXNItd","standard","2","6","LP","19.8235243429556","5.77","NaN","6.219","0.449","NaN","0","3",NA
"95","R_1kGjQEXSwSXNItd","standard","2","7","LP","3.49090909090909","7.224","NaN","7.365","0.141","NaN","0","3",NA
"96","R_1kGjQEXSwSXNItd","standard","2","8","LP","13.0392072382594","8.369","NaN","8.473","0.104","NaN","0","3",NA
"97","R_1kGjQEXSwSXNItd","standard","2","9","LP","8.51632916846187","9.477","18.218",NA,"10.735",NA,"0","3",NA
"98","R_1kGjQEXSwSXNItd","standard","2","10","LP","5.5010771219302","22.206","28.201",NA,"7.023",NA,"0","3",NA
"99","R_1kGjQEXSwSXNItd","standard","2","11","LP","30","31.224","NaN","48.704","17.48","NaN","0","3",NA
"100","R_1kGjQEXSwSXNItd","standard","2","12","LP","0.661783713916415","49.712","NaN","49.75","0.038","NaN","0","3",NA
"101","R_1kGjQEXSwSXNItd","standard","2","13","LP","13.0392072382594","50.754","NaN","50.798","0.044","NaN","0","3",NA
"102","R_1kGjQEXSwSXNItd","standard","2","14","LP","2.15079707022835","51.802","NaN","51.915","0.113","NaN","0","3",NA
"103","R_1kGjQEXSwSXNItd","standard","2","15","LP","3.49090909090909","52.92","NaN","52.962","0.042","NaN","0","3",NA
"104","R_1kGjQEXSwSXNItd","standard","2","16","LP","8.51632916846187","53.97","NaN","53.981","0.011","NaN","0","3",NA
"105","R_1kGjQEXSwSXNItd","standard","2","17","LP","5.5010771219302","54.986","NaN","55.172","0.186","NaN","0","3",NA
"106","R_1kGjQEXSwSXNItd","standard","2","18","LP","13.0392072382594","56.18","NaN","56.279","0.099","NaN","0","3",NA
"107","R_1kGjQEXSwSXNItd","standard","2","19","LP","0.661783713916415","57.283","NaN","57.334","0.051","NaN","0","3",NA
"108","R_1kGjQEXSwSXNItd","standard","2","20","LP","5.5010771219302","58.338","NaN","58.398","0.06","NaN","0","3",NA
"109","R_1kGjQEXSwSXNItd","standard","2","21","LP","30","59.403","NaN","62.591","3.188","NaN","0","3",NA
"110","R_1kGjQEXSwSXNItd","standard","2","22","LP","3.49090909090909","63.594","NaN","63.812","0.218","NaN","0","3",NA
"111","R_1kGjQEXSwSXNItd","standard","2","23","LP","1.25738905644119","64.819","NaN","64.903","0.084","NaN","0","3",NA
"112","R_1kGjQEXSwSXNItd","standard","2","24","LP","13.0392072382594","65.921","NaN","67.59","1.669","NaN","0","3",NA
"113","R_1kGjQEXSwSXNItd","standard","2","25","LP","0.264713485566566","68.594","NaN","68.735","0.141","NaN","0","3",NA
"114","R_1kGjQEXSwSXNItd","standard","2","26","LP","2.15079707022835","69.737","NaN","69.79","0.053","NaN","0","3",NA
"115","R_1kGjQEXSwSXNItd","standard","2","27","LP","2.15079707022835","70.795","NaN","70.983","0.188","NaN","0","3",NA
"116","R_1kGjQEXSwSXNItd","standard","2","28","LP","3.49090909090909","71.986","NaN","72.159","0.173","NaN","0","3",NA
"117","R_1kGjQEXSwSXNItd","standard","2","29","LP","0.264713485566566","73.206","74.203",NA,"3.005",NA,"0","3",NA
"118","R_1kGjQEXSwSXNItd","standard","2","30","LP","19.8235243429556","77.221","97.206",NA,"21.009",NA,"0","3",NA
"119","R_1kGjQEXSwSXNItd","standard","2","31","LP","3.49090909090909","100.219","104.221",NA,"5.007",NA,"0","3",NA
"120","R_1kGjQEXSwSXNItd","standard","2","32","LP","5.5010771219302","106.227","112.207",NA,"6.994",NA,"0","3",NA
"121","R_1kGjQEXSwSXNItd","standard","2","33","LP","30","114.267","NaN","115.318","1.051","NaN","0","3",NA
"122","R_1kGjQEXSwSXNItd","standard","2","34","LP","8.51632916846187","116.324","NaN","116.508","0.184","NaN","0","3",NA
"123","R_1kGjQEXSwSXNItd","standard","2","35","LP","5.5010771219302","117.509","NaN","117.706","0.197","NaN","0","3",NA
"124","R_1kGjQEXSwSXNItd","standard","2","36","LP","30","119.218","NaN","138.024","18.806","NaN","0","3",NA
"125","R_1kGjQEXSwSXNItd","standard","2","37","LP","0.661783713916415","139.028","NaN","139.204","0.176","NaN","0","3",NA
"126","R_1kGjQEXSwSXNItd","standard","2","38","LP","0.264713485566566","140.205","NaN","140.344","0.139","NaN","0","3",NA
"127","R_1kGjQEXSwSXNItd","standard","2","39","LP","8.51632916846187","141.35","NaN","141.403","0.053","NaN","0","3",NA
"128","R_1kGjQEXSwSXNItd","standard","2","40","LP","30","142.405","NaN","142.581","0.176","NaN","0","3",NA
"129","R_1kGjQEXSwSXNItd","standard","2","41","LP","2.15079707022835","143.588","NaN","143.756","0.168","NaN","0","3",NA
"130","R_1kGjQEXSwSXNItd","standard","2","42","LP","5.5010771219302","144.764","NaN","144.971","0.207","NaN","0","3",NA
"131","R_1kGjQEXSwSXNItd","standard","2","43","LP","5.5010771219302","145.98","NaN","146.154","0.174","NaN","0","3",NA
"132","R_1kGjQEXSwSXNItd","standard","2","44","LP","0.264713485566566","147.155","NaN","147.253","0.098","NaN","0","3",NA
"133","R_1kGjQEXSwSXNItd","standard","2","45","LP","3.49090909090909","148.261","NaN","148.378","0.117","NaN","0","3",NA
"134","R_1kGjQEXSwSXNItd","standard","2","46","LP","19.8235243429556","150.206","NaN","160.467","10.261","NaN","0","3",NA
"135","R_1kGjQEXSwSXNItd","standard","2","47","LP","8.51632916846187","161.47","NaN","161.668","0.198","NaN","0","3",NA
"136","R_1kGjQEXSwSXNItd","standard","2","48","LP","13.0392072382594","162.67","NaN","162.698","0.028","NaN","0","3",NA
"137","R_1kGjQEXSwSXNItd","standard","2","49","LP","0.264713485566566","163.702","NaN","163.76","0.058","NaN","0","3",NA
"138","R_1kGjQEXSwSXNItd","standard","2","50","LP","19.8235243429556","164.766","NaN","164.808","0.042","NaN","0","3",NA
"139","R_1kGjQEXSwSXNItd","standard","2","51","LP","5.5010771219302","165.814","NaN","165.969","0.155","NaN","0","3",NA
"140","R_1kGjQEXSwSXNItd","standard","2","52","LP","0.661783713916415","166.972","NaN","167.039","0.067","NaN","0","3",NA
"141","R_1kGjQEXSwSXNItd","standard","2","53","LP","0.661783713916415","168.045","NaN","168.251","0.206","NaN","0","3",NA
"142","R_1kGjQEXSwSXNItd","standard","2","54","LP","30","169.253","NaN","169.408","0.155","NaN","0","3",NA
"143","R_1kGjQEXSwSXNItd","standard","2","55","LP","1.25738905644119","170.415","NaN","170.469","0.054","NaN","0","3",NA
"144","R_1kGjQEXSwSXNItd","standard","2","56","LP","8.51632916846187","171.471","NaN","171.585","0.114","NaN","0","3",NA
"145","R_1kGjQEXSwSXNItd","standard","2","57","LP","3.49090909090909","172.591","NaN","172.637","0.046","NaN","0","3",NA
"146","R_1kGjQEXSwSXNItd","standard","2","58","LP","1.25738905644119","173.646","NaN","173.771","0.125","NaN","0","3",NA
"147","R_1kGjQEXSwSXNItd","standard","2","59","LP","0.264713485566566","174.784","NaN","174.887","0.103","NaN","0","3",NA
"148","R_1kGjQEXSwSXNItd","standard","2","60","LP","5.5010771219302","175.894","NaN","176.085","0.191","NaN","0","3",NA
"149","R_1kGjQEXSwSXNItd","standard","2","61","LP","0.264713485566566","177.094","NaN","177.331","0.237","NaN","0","3",NA
"150","R_1kGjQEXSwSXNItd","standard","2","62","LP","3.49090909090909","178.334","NaN","178.613","0.279","NaN","0","3",NA
"151","R_1kGjQEXSwSXNItd","standard","2","63","LP","30","179.622","NaN","179.806","0.184","NaN","0","3",NA
"152","R_1kGjQEXSwSXNItd","standard","2","64","LP","8.51632916846187","181.207","189.726","189.954","8.747","0.228","3","6",NA
"153","R_1kGjQEXSwSXNItd","standard","2","65","LP","0.661783713916415","190.956","NaN","191.262","0.306","NaN","0","6",NA
"154","R_1kGjQEXSwSXNItd","standard","2","66","LP","13.0392072382594","192.27","NaN","203.487","11.217","NaN","0","6",NA
"155","R_1kGjQEXSwSXNItd","standard","2","67","LP","3.49090909090909","204.495","NaN","204.562","0.067","NaN","0","6",NA
"156","R_1kGjQEXSwSXNItd","standard","2","68","LP","3.49090909090909","205.566","NaN","205.759","0.193","NaN","0","6",NA
"157","R_1kGjQEXSwSXNItd","standard","2","69","LP","30","206.765","NaN","206.804","0.039","NaN","0","6",NA
"158","R_1kGjQEXSwSXNItd","standard","2","70","LP","8.51632916846187","207.807","NaN","214.724","6.917","NaN","0","6",NA
"159","R_1kGjQEXSwSXNItd","standard","2","71","LP","0.661783713916415","215.727","NaN","215.777","0.05","NaN","0","6",NA
"160","R_1kGjQEXSwSXNItd","standard","2","72","LP","0.661783713916415","216.783","218.208",NA,"3.429",NA,"0","6",NA
"161","R_1kGjQEXSwSXNItd","standard","2","73","LP","3.49090909090909","222.206","225.703","225.917","3.711","0.214","3","9",NA
"162","R_1kGjQEXSwSXNItd","standard","2","74","LP","5.5010771219302","226.919","NaN","226.958","0.039","NaN","0","9",NA
"163","R_1kGjQEXSwSXNItd","standard","2","75","LP","3.49090909090909","227.967","NaN","228.042","0.075","NaN","0","9",NA
"164","R_1kGjQEXSwSXNItd","standard","2","76","LP","8.51632916846187","229.048","238.218",NA,"11.16",NA,"0","9",NA
"165","R_1kGjQEXSwSXNItd","standard","2","77","LP","3.49090909090909","241.209","245.208",NA,"5.006",NA,"0","9",NA
"166","R_1kGjQEXSwSXNItd","standard","2","78","LP","0.264713485566566","247.227","248.207",NA,"1.98",NA,"0","9",NA
"167","R_1kGjQEXSwSXNItd","standard","2","79","LP","5.5010771219302","250.21","NaN","250.359","0.149","NaN","0","9",NA
"168","R_1kGjQEXSwSXNItd","standard","2","80","LP","0.661783713916415","251.368","NaN","251.521","0.153","NaN","0","9",NA
"169","R_1kGjQEXSwSXNItd","standard","2","81","LP","3.49090909090909","252.527","NaN","252.745","0.218","NaN","0","9",NA
"170","R_1kGjQEXSwSXNItd","standard","2","82","LP","0.264713485566566","253.75","NaN","253.997","0.247","NaN","0","9",NA
"171","R_1kGjQEXSwSXNItd","standard","2","83","LP","0.264713485566566","254.999","NaN","255.142","0.143","NaN","0","9",NA
"172","R_1kGjQEXSwSXNItd","standard","2","84","LP","19.8235243429556","256.148","NaN","256.265","0.117","NaN","0","9",NA
"173","R_1kGjQEXSwSXNItd","standard","2","85","LP","8.51632916846187","257.272","NaN","257.433","0.161","NaN","0","9",NA
"174","R_1kGjQEXSwSXNItd","standard","2","86","LP","2.15079707022835","258.435","NaN","258.603","0.168","NaN","0","9",NA
"175","R_1kGjQEXSwSXNItd","standard","2","87","LP","19.8235243429556","260.207","NaN","262.563","2.356","NaN","0","9",NA
"176","R_1kGjQEXSwSXNItd","standard","2","88","LP","3.49090909090909","263.564","267.217",NA,"5.649",NA,"0","9",NA
"177","R_1kGjQEXSwSXNItd","standard","2","89","LP","3.49090909090909","271.215","275.215",NA,"5.998",NA,"0","9",NA
"178","R_1kGjQEXSwSXNItd","standard","2","90","LP","3.49090909090909","278.292","NaN","279.423","1.131","NaN","0","9",NA
"179","R_1kGjQEXSwSXNItd","standard","2","91","LP","5.5010771219302","280.43","NaN","280.585","0.155","NaN","0","9",NA
"180","R_1kGjQEXSwSXNItd","standard","2","92","LP","1.25738905644119","281.59","NaN","281.623","0.033","NaN","0","9",NA
"181","R_1kGjQEXSwSXNItd","standard","2","93","LP","19.8235243429556","282.63","303.206",NA,"22.585",NA,"0","9",NA
"182","R_1kGjQEXSwSXNItd","standard","2","94","LP","19.8235243429556","307.206","NaN","321.105","13.899","NaN","0","9",NA
"183","R_1kGjQEXSwSXNItd","standard","2","95","LP","1.25738905644119","322.107","324.207",NA,"4.101",NA,"0","9",NA
"184","R_1kGjQEXSwSXNItd","standard","2","96","LP","13.0392072382594","328.206","NaN","335.066","6.86","NaN","0","9",NA
"185","R_1kGjQEXSwSXNItd","standard","2","97","LP","8.51632916846187","336.07","NaN","339.115","3.045","NaN","0","9",NA
"186","R_1kGjQEXSwSXNItd","standard","2","98","LP","1.25738905644119","340.124","NaN","340.131","0.007","NaN","0","9",NA
"187","R_1kGjQEXSwSXNItd","standard","2","99","LP","8.51632916846187","341.133","NaN","341.286","0.153","NaN","0","9",NA
"188","R_1kGjQEXSwSXNItd","standard","2","100","LP","30","342.294","NaN","342.352","0.058","NaN","0","9",NA
"189","R_1kGjQEXSwSXNItd","standard","2","101","LP","30","343.356","NaN","343.457","0.101","NaN","0","9",NA
"190","R_1kGjQEXSwSXNItd","standard","2","102","LP","0.264713485566566","344.462","344.729",NA,"1.744",NA,"0","9",NA
"191","R_1kGjQEXSwSXNItd","standard","2","103","LP","19.8235243429556","347.207","367.207",NA,"21.007",NA,"0","9",NA
"192","R_1kGjQEXSwSXNItd","standard","2","104","LP","3.49090909090909","370.206","NaN","373.069","2.863","NaN","0","9",NA
"193","R_1kGjQEXSwSXNItd","standard","2","105","LP","0.264713485566566","374.071","NaN","374.175","0.104","NaN","0","9",NA
"194","R_1kGjQEXSwSXNItd","standard","2","106","LP","13.0392072382594","375.182","NaN","375.208","0.026","NaN","0","9",NA
"195","R_1kGjQEXSwSXNItd","standard","2","107","LP","13.0392072382594","376.214","NaN","376.224","0.01","NaN","0","9",NA
"196","R_1kGjQEXSwSXNItd","standard","2","108","LP","0.264713485566566","377.23","NaN","377.423","0.193","NaN","0","9",NA
"197","R_1kGjQEXSwSXNItd","standard","2","109","LP","3.49090909090909","378.429","NaN","378.755","0.326","NaN","0","9",NA
"198","R_1kGjQEXSwSXNItd","standard","2","110","LP","0.661783713916415","379.759","NaN","379.836","0.077","NaN","0","9",NA
"199","R_1kGjQEXSwSXNItd","standard","2","111","LP","2.15079707022835","380.837","NaN","381.046","0.209","NaN","0","9",NA
"200","R_1kGjQEXSwSXNItd","standard","2","112","LP","8.51632916846187","382.055","NaN","382.317","0.262","NaN","0","9",NA
"201","R_1kGjQEXSwSXNItd","standard","2","113","LP","0.661783713916415","383.325","NaN","383.371","0.046","NaN","0","9",NA
"202","R_1kGjQEXSwSXNItd","standard","2","114","LP","3.49090909090909","384.374","NaN","384.565","0.191","NaN","0","9",NA
"203","R_1kGjQEXSwSXNItd","standard","2","115","LP","3.49090909090909","385.573","NaN","385.66","0.087","NaN","0","9",NA
"204","R_1kGjQEXSwSXNItd","standard","2","116","LP","13.0392072382594","386.67","NaN","386.846","0.176","NaN","0","9",NA
"205","R_1kGjQEXSwSXNItd","standard","2","117","LP","0.264713485566566","387.855","NaN","388.026","0.171","NaN","0","9",NA
"206","R_1kGjQEXSwSXNItd","standard","2","118","LP","0.661783713916415","389.029","NaN","389.199","0.17","NaN","0","9",NA
"207","R_1kGjQEXSwSXNItd","standard","2","119","LP","30","390.207","NaN","390.363","0.156","NaN","0","9",NA
"208","R_1kGjQEXSwSXNItd","standard","2","120","LP","30","391.366","NaN","391.441","0.075","NaN","0","9",NA
"209","R_1kGjQEXSwSXNItd","standard","2","121","LP","3.49090909090909","392.446","NaN","392.485","0.039","NaN","0","9",NA
"210","R_1kGjQEXSwSXNItd","standard","2","122","LP","3.49090909090909","393.494","NaN","393.643","0.149","NaN","0","9",NA
"211","R_1kGjQEXSwSXNItd","standard","2","123","LP","30","394.646","NaN","396.011","1.365","NaN","0","9",NA
"212","R_1kGjQEXSwSXNItd","standard","2","124","LP","2.15079707022835","397.014","NaN","397.225","0.211","NaN","0","9",NA
"213","R_1kGjQEXSwSXNItd","standard","2","125","LP","30","398.23","NaN","398.238","0.008","NaN","0","9",NA
"214","R_1kGjQEXSwSXNItd","standard","2","126","LP","30","399.246","NaN","399.371","0.125","NaN","0","9",NA
"215","R_1kGjQEXSwSXNItd","standard","2","127","LP","5.5010771219302","400.374","NaN","400.54","0.166","NaN","0","9",NA
"216","R_1kGjQEXSwSXNItd","standard","2","128","LP","3.49090909090909","401.542","NaN","401.62","0.078","NaN","0","9",NA
"217","R_1kGjQEXSwSXNItd","standard","2","129","LP","13.0392072382594","403.211","NaN","411.953","8.742","NaN","0","9",NA
"218","R_1kGjQEXSwSXNItd","standard","2","130","LP","5.5010771219302","412.958","NaN","413.138","0.18","NaN","0","9",NA
"219","R_1kGjQEXSwSXNItd","standard","2","131","LP","2.15079707022835","414.142","NaN","414.172","0.03","NaN","0","9",NA
"220","R_1kGjQEXSwSXNItd","standard","2","132","LP","19.8235243429556","415.174","NaN","415.378","0.204","NaN","0","9",NA
"221","R_1kGjQEXSwSXNItd","standard","2","133","LP","0.661783713916415","416.382","NaN","416.484","0.102","NaN","0","9",NA
"222","R_1kGjQEXSwSXNItd","standard","2","134","LP","5.5010771219302","417.489","NaN","417.577","0.088","NaN","0","9",NA
"223","R_1kGjQEXSwSXNItd","standard","2","135","LP","30","418.583","NaN","418.713","0.13","NaN","0","9",NA
"224","R_1kGjQEXSwSXNItd","standard","2","136","LP","5.5010771219302","420.208","NaN","421.101","0.893","NaN","0","9",NA
"225","R_1kGjQEXSwSXNItd","standard","2","137","LP","3.49090909090909","422.104","NaN","422.168","0.064","NaN","0","9",NA
"226","R_1kGjQEXSwSXNItd","standard","2","138","LP","0.661783713916415","423.174","NaN","423.401","0.227","NaN","0","9",NA
"227","R_1kGjQEXSwSXNItd","standard","2","139","LP","19.8235243429556","424.406","NaN","424.511","0.105","NaN","0","9",NA
"228","R_1kGjQEXSwSXNItd","standard","2","140","LP","0.661783713916415","425.523","NaN","425.605","0.082","NaN","0","9",NA
"229","R_1kGjQEXSwSXNItd","standard","2","141","LP","1.25738905644119","426.606","NaN","426.752","0.146","NaN","0","9",NA
"230","R_1kGjQEXSwSXNItd","standard","2","142","LP","13.0392072382594","427.759","NaN","427.884","0.125","NaN","0","9",NA
"231","R_1kGjQEXSwSXNItd","standard","2","143","LP","0.264713485566566","428.886","NaN","428.966","0.08","NaN","0","9",NA
"232","R_1kGjQEXSwSXNItd","standard","2","144","LP","3.49090909090909","429.975","NaN","430.058","0.083","NaN","0","9",NA
"233","R_1kGjQEXSwSXNItd","standard","2","145","LP","13.0392072382594","431.062","NaN","431.69","0.628","NaN","0","9",NA
"234","R_1kGjQEXSwSXNItd","standard","2","146","LP","30","432.694","NaN","432.714","0.02","NaN","0","9",NA
"235","R_1kGjQEXSwSXNItd","standard","2","147","LP","0.264713485566566","433.718","NaN","433.9","0.182","NaN","0","9",NA
"236","R_1kGjQEXSwSXNItd","standard","2","148","LP","0.661783713916415","434.912","NaN","434.92","0.008","NaN","0","9",NA
"237","R_1kGjQEXSwSXNItd","standard","2","149","LP","5.5010771219302","435.926","NaN","437.445","1.519","NaN","0","9",NA
"238","R_1kGjQEXSwSXNItd","standard","2","150","LP","0.661783713916415","438.45","NaN","438.571","0.121","NaN","0","9",NA
"239","R_1kGjQEXSwSXNItd","standard","2","151","LP","8.51632916846187","439.575","NaN","439.804","0.229","NaN","0","9",NA
"240","R_1kGjQEXSwSXNItd","standard","2","152","LP","0.264713485566566","440.805","441.078",NA,"1.282",NA,"0","9",NA
"241","R_1kGjQEXSwSXNItd","standard","2","153","LP","30","443.094","NaN","444.155","1.061","NaN","0","9",NA
"242","R_1kGjQEXSwSXNItd","standard","2","154","LP","30","445.158","NaN","445.311","0.153","NaN","0","9",NA
"243","R_1kGjQEXSwSXNItd","standard","2","155","LP","30","446.318","NaN","446.377","0.059","NaN","0","9",NA
"244","R_1kGjQEXSwSXNItd","standard","2","156","LP","13.0392072382594","447.384","NaN","448.096","0.712","NaN","0","9",NA
"245","R_1kGjQEXSwSXNItd","standard","2","157","LP","8.51632916846187","449.102","NaN","449.366","0.264","NaN","0","9",NA
"246","R_1kGjQEXSwSXNItd","standard","2","158","LP","13.0392072382594","450.374","NaN","450.503","0.129","NaN","0","9",NA
"247","R_1kGjQEXSwSXNItd","standard","2","159","LP","8.51632916846187","451.506","NaN","451.767","0.261","NaN","0","9",NA
"248","R_1kGjQEXSwSXNItd","standard","2","160","LP","3.49090909090909","452.774","NaN","455.482","2.708","NaN","0","9",NA
"249","R_1kGjQEXSwSXNItd","standard","2","161","LP","8.51632916846187","456.487","NaN","456.578","0.091","NaN","0","9",NA
"250","R_1kGjQEXSwSXNItd","standard","2","162","LP","19.8235243429556","457.583","NaN","457.801","0.218","NaN","0","9",NA
"251","R_1kGjQEXSwSXNItd","standard","2","163","LP","5.5010771219302","458.807","NaN","459.079","0.272","NaN","0","9",NA
"252","R_1kGjQEXSwSXNItd","standard","2","164","LP","13.0392072382594","460.088","473.217",NA,"15.121",NA,"0","9",NA
"253","R_1kGjQEXSwSXNItd","standard","2","165","LP","2.15079707022835","476.219","479.216",NA,"5",NA,"0","9",NA
"254","R_1kGjQEXSwSXNItd","standard","2","166","LP","3.49090909090909","482.222","NaN","483.814","1.592","NaN","0","9",NA
"255","R_1kGjQEXSwSXNItd","standard","2","167","LP","3.49090909090909","484.823","NaN","485.015","0.192","NaN","0","9",NA
"256","R_1kGjQEXSwSXNItd","standard","2","168","LP","19.8235243429556","486.024","NaN","486.11","0.086","NaN","0","9",NA
"257","R_1kGjQEXSwSXNItd","standard","2","169","LP","30","487.125","NaN","487.336","0.211","NaN","0","9",NA
"258","R_1kGjQEXSwSXNItd","standard","2","170","LP","13.0392072382594","488.343","NaN","488.414","0.071","NaN","0","9",NA
"259","R_1kGjQEXSwSXNItd","standard","2","171","LP","13.0392072382594","489.423","NaN","489.451","0.028","NaN","0","9",NA
"260","R_1kGjQEXSwSXNItd","standard","2","172","LP","5.5010771219302","490.455","NaN","490.461","0.006","NaN","0","9",NA
"261","R_1kGjQEXSwSXNItd","standard","2","173","LP","5.5010771219302","491.464","NaN","491.626","0.162","NaN","0","9",NA
"262","R_1kGjQEXSwSXNItd","standard","2","174","LP","2.15079707022835","492.631","NaN","492.655","0.024","NaN","0","9",NA
"263","R_1kGjQEXSwSXNItd","standard","2","175","LP","3.49090909090909","493.663","NaN","493.818","0.155","NaN","0","9",NA
"264","R_1kGjQEXSwSXNItd","standard","2","176","LP","0.264713485566566","494.823","NaN","494.865","0.042","NaN","0","9",NA
"265","R_1kGjQEXSwSXNItd","standard","2","177","LP","30","495.866","NaN","496.125","0.259","NaN","0","9",NA
"266","R_1kGjQEXSwSXNItd","standard","2","178","LP","5.5010771219302","497.128","NaN","497.252","0.124","NaN","0","9",NA
"267","R_1kGjQEXSwSXNItd","standard","2","179","LP","2.15079707022835","498.255","NaN","498.393","0.138","NaN","0","9",NA
"268","R_1kGjQEXSwSXNItd","standard","2","180","LP","2.15079707022835","499.399","NaN","499.601","0.202","NaN","0","9",NA
"269","R_1kGjQEXSwSXNItd","standard","2","181","LP","3.49090909090909","500.608","NaN","500.774","0.166","NaN","0","9",NA
"270","R_1kGjQEXSwSXNItd","standard","2","182","LP","2.15079707022835","501.783","NaN","501.978","0.195","NaN","0","9",NA
"271","R_1kGjQEXSwSXNItd","standard","2","183","LP","30","502.983","NaN","503.377","0.394","NaN","0","9",NA
"272","R_1kGjQEXSwSXNItd","standard","2","184","LP","13.0392072382594","504.383","NaN","505.913","1.53","NaN","0","9",NA
"273","R_1kGjQEXSwSXNItd","standard","2","185","LP","30","506.92","NaN","507.129","0.209","NaN","0","9",NA
"274","R_1kGjQEXSwSXNItd","standard","2","186","LP","19.8235243429556","508.135","NaN","508.173","0.038","NaN","0","9",NA
"275","R_1kGjQEXSwSXNItd","standard","2","187","LP","3.49090909090909","509.175","NaN","509.377","0.202","NaN","0","9",NA
"276","R_1kGjQEXSwSXNItd","standard","2","188","LP","1.25738905644119","510.383","NaN","510.425","0.042","NaN","0","9",NA
"277","R_1kGjQEXSwSXNItd","standard","2","189","LP","8.51632916846187","511.431","NaN","511.707","0.276","NaN","0","9",NA
"278","R_1kGjQEXSwSXNItd","standard","2","190","LP","5.5010771219302","512.712","NaN","514.117","1.405","NaN","0","9",NA
"279","R_1kGjQEXSwSXNItd","standard","2","191","LP","3.49090909090909","515.119","NaN","515.19","0.071","NaN","0","9",NA
"280","R_1kGjQEXSwSXNItd","standard","2","192","LP","0.264713485566566","516.199","NaN","516.401","0.202","NaN","0","9",NA
"281","R_1kGjQEXSwSXNItd","standard","2","193","LP","0.264713485566566","517.407","NaN","517.679","0.272","NaN","0","9",NA
"282","R_1kGjQEXSwSXNItd","standard","2","194","LP","0.264713485566566","518.687","NaN","518.869","0.182","NaN","0","9",NA
"283","R_1kGjQEXSwSXNItd","standard","2","195","LP","1.25738905644119","519.871","NaN","519.954","0.083","NaN","0","9",NA
"284","R_1kGjQEXSwSXNItd","standard","2","196","LP","30","520.96","NaN","522.001","1.041","NaN","0","9",NA
"285","R_1kGjQEXSwSXNItd","standard","2","197","LP","1.25738905644119","523.007","NaN","523.564","0.557","NaN","0","9",NA
"286","R_1kGjQEXSwSXNItd","standard","2","198","LP","5.5010771219302","524.567","NaN","524.712","0.145","NaN","0","9",NA
"287","R_1kGjQEXSwSXNItd","standard","2","199","LP","0.264713485566566","525.72","525.992","526.17","0.45","0.178","3","12",NA
"288","R_1kGjQEXSwSXNItd","standard","2","200","LP","8.51632916846187","527.176","NaN","527.423","0.247","NaN","0","12",NA
"289","R_1kGjQEXSwSXNItd","standard","2","201","LP","19.8235243429556","528.434","NaN","528.606","0.172","NaN","0","12",NA
"290","R_1kGjQEXSwSXNItd","standard","2","202","LP","8.51632916846187","529.609","NaN","529.788","0.179","NaN","0","12",NA
"291","R_1kGjQEXSwSXNItd","standard","2","203","LP","2.15079707022835","530.791","NaN","530.86","0.069","NaN","0","12",NA
"292","R_1kGjQEXSwSXNItd","standard","2","204","LP","8.51632916846187","531.863","NaN","531.938","0.075","NaN","0","12",NA
"293","R_1kGjQEXSwSXNItd","standard","2","205","LP","1.25738905644119","532.945","NaN","532.991","0.046","NaN","0","12",NA
"294","R_1kGjQEXSwSXNItd","standard","2","206","LP","13.0392072382594","533.999","NaN","534.066","0.067","NaN","0","12",NA
"295","R_1kGjQEXSwSXNItd","standard","2","207","LP","0.264713485566566","535.071","NaN","535.281","0.21","NaN","0","12",NA
"296","R_1kGjQEXSwSXNItd","standard","2","208","LP","19.8235243429556","536.287","NaN","536.325","0.038","NaN","0","12",NA
"297","R_1kGjQEXSwSXNItd","standard","2","209","LP","30","537.327","NaN","537.509","0.182","NaN","0","12",NA
"298","R_1kGjQEXSwSXNItd","standard","2","210","LP","5.5010771219302","538.511","NaN","538.759","0.248","NaN","0","12",NA
"299","R_1kGjQEXSwSXNItd","standard","2","211","LP","0.661783713916415","539.762","NaN","540.024","0.262","NaN","0","12",NA
"300","R_1kGjQEXSwSXNItd","standard","2","212","LP","1.25738905644119","541.032","NaN","541.208","0.176","NaN","0","12",NA
"301","R_1kGjQEXSwSXNItd","standard","2","213","LP","19.8235243429556","542.214","NaN","542.291","0.077","NaN","0","12",NA
"302","R_1kGjQEXSwSXNItd","standard","2","214","LP","1.25738905644119","543.298","NaN","543.379","0.081","NaN","0","12",NA
"303","R_1kGjQEXSwSXNItd","standard","2","215","LP","19.8235243429556","544.383","NaN","544.596","0.213","NaN","0","12",NA
"304","R_1kGjQEXSwSXNItd","standard","2","216","LP","8.51632916846187","545.599","NaN","545.82","0.221","NaN","0","12",NA
"305","R_1kGjQEXSwSXNItd","standard","2","217","LP","19.8235243429556","546.825","NaN","547.04","0.215","NaN","0","12",NA
"306","R_1kGjQEXSwSXNItd","standard","2","218","LP","0.661783713916415","548.047","NaN","548.254","0.207","NaN","0","12",NA
"307","R_1kGjQEXSwSXNItd","standard","2","219","LP","0.264713485566566","549.255","NaN","549.279","0.024","NaN","0","12",NA
"308","R_1kGjQEXSwSXNItd","standard","2","220","LP","13.0392072382594","550.288","NaN","550.366","0.078","NaN","0","12",NA
"309","R_1kGjQEXSwSXNItd","standard","2","221","LP","5.5010771219302","551.368","NaN","551.531","0.163","NaN","0","12",NA
"310","R_1kGjQEXSwSXNItd","standard","2","222","LP","3.49090909090909","552.536","NaN","552.674","0.138","NaN","0","12",NA
"311","R_1kGjQEXSwSXNItd","standard","2","223","LP","0.264713485566566","553.679","NaN","553.724","0.045","NaN","0","12",NA
"312","R_1kGjQEXSwSXNItd","standard","2","224","LP","8.51632916846187","554.728","NaN","558.151","3.423","NaN","0","12",NA
"313","R_1kGjQEXSwSXNItd","standard","2","225","LP","19.8235243429556","559.159","NaN","559.34","0.181","NaN","0","12",NA
"314","R_1kGjQEXSwSXNItd","standard","2","226","LP","0.264713485566566","560.343","NaN","560.345","0.002","NaN","0","12",NA
"315","R_1kGjQEXSwSXNItd","standard","2","227","LP","0.264713485566566","561.352","NaN","561.486","0.134","NaN","0","12",NA
"316","R_1kGjQEXSwSXNItd","standard","2","228","LP","19.8235243429556","562.495","NaN","562.641","0.146","NaN","0","12",NA
"317","R_1kGjQEXSwSXNItd","standard","2","229","LP","2.15079707022835","563.648","NaN","563.681","0.033","NaN","0","12",NA
"318","R_1kGjQEXSwSXNItd","standard","2","230","LP","0.661783713916415","564.687","NaN","564.765","0.078","NaN","0","12",NA
"319","R_1kGjQEXSwSXNItd","standard","2","231","LP","19.8235243429556","565.767","NaN","565.891","0.124","NaN","0","12",NA
"320","R_1kGjQEXSwSXNItd","standard","2","232","LP","5.5010771219302","566.896","NaN","567.085","0.189","NaN","0","12",NA
"321","R_1kGjQEXSwSXNItd","standard","2","233","LP","8.51632916846187","568.088","NaN","568.215","0.127","NaN","0","12",NA
"322","R_1kGjQEXSwSXNItd","standard","2","234","LP","8.51632916846187","569.223","NaN","569.648","0.425","NaN","0","12",NA
"323","R_1kGjQEXSwSXNItd","standard","2","235","LP","1.25738905644119","570.655","NaN","570.711","0.056","NaN","0","12",NA
"324","R_1kGjQEXSwSXNItd","standard","2","236","LP","3.49090909090909","571.72","NaN","571.908","0.188","NaN","0","12",NA
"325","R_1kGjQEXSwSXNItd","standard","2","237","LP","0.264713485566566","572.94","NaN","572.947","0.007","NaN","0","12",NA
"326","R_1kGjQEXSwSXNItd","standard","2","238","LP","5.5010771219302","573.951","NaN","574.127","0.176","NaN","0","12",NA
"327","R_1kGjQEXSwSXNItd","standard","2","239","LP","3.49090909090909","575.131","NaN","575.176","0.045","NaN","0","12",NA
"328","R_1kGjQEXSwSXNItd","standard","2","240","LP","19.8235243429556","576.177","NaN","576.371","0.194","NaN","0","12",NA
"329","R_1kGjQEXSwSXNItd","standard","2","241","LP","8.51632916846187","577.377","NaN","577.453","0.076","NaN","0","12",NA
"330","R_1kGjQEXSwSXNItd","standard","2","242","LP","3.49090909090909","578.457","NaN","578.623","0.166","NaN","0","12",NA
"331","R_1kGjQEXSwSXNItd","standard","2","243","LP","30","579.633","NaN","579.651","0.018","NaN","0","12",NA
"332","R_1kGjQEXSwSXNItd","standard","2","244","LP","0.264713485566566","580.656","NaN","580.891","0.235","NaN","0","12",NA
"333","R_1kGjQEXSwSXNItd","standard","2","245","LP","8.51632916846187","581.897","NaN","581.995","0.098","NaN","0","12",NA
"334","R_1kGjQEXSwSXNItd","standard","2","246","LP","0.264713485566566","583","NaN","583.019","0.019","NaN","0","12",NA
"335","R_1kGjQEXSwSXNItd","standard","2","247","LP","8.51632916846187","584.02","NaN","584.211","0.191","NaN","0","12",NA
"336","R_1kGjQEXSwSXNItd","standard","2","248","LP","19.8235243429556","585.214","NaN","585.464","0.25","NaN","0","12",NA
"337","R_1kGjQEXSwSXNItd","standard","2","249","LP","8.51632916846187","586.474","NaN","586.867","0.393","NaN","0","12",NA
"338","R_1kGjQEXSwSXNItd","standard","2","250","LP","8.51632916846187","587.87","NaN","588.05","0.18","NaN","0","12",NA
"339","R_1kGjQEXSwSXNItd","standard","2","251","LP","8.51632916846187","589.057","NaN","589.243","0.186","NaN","0","12",NA
"340","R_1kGjQEXSwSXNItd","standard","2","252","LP","19.8235243429556","590.248","NaN","590.308","0.06","NaN","0","12",NA
"341","R_1kGjQEXSwSXNItd","standard","2","253","LP","30","591.315","NaN","591.395","0.08","NaN","0","12",NA
"342","R_1kGjQEXSwSXNItd","standard","2","254","LP","0.661783713916415","592.401","NaN","592.601","0.2","NaN","0","12",NA
"343","R_1kGjQEXSwSXNItd","standard","2","255","LP","0.661783713916415","593.608","NaN","593.813","0.205","NaN","0","12",NA
"344","R_1kGjQEXSwSXNItd","standard","2","256","LP","0.264713485566566","594.816","595.088","595.112","0.296","0.024","3","15",NA
"345","R_1kGjQEXSwSXNItd","standard","2","257","LP","8.51632916846187","596.113","NaN","596.189","0.076","NaN","0","15",NA
"346","R_1kGjQEXSwSXNItd","standard","2","258","LP","0.661783713916415","597.193","NaN","597.357","0.164","NaN","0","15",NA
"347","R_1kGjQEXSwSXNItd","standard","2","259","LP","30","598.36","NaN","598.593","0.233","NaN","0","15",NA
"348","R_1kGjQEXSwSXNItd","standard","2","260","LP","8.51632916846187","599.601","NaN","599.711","0.11","NaN","0","15",NA
