"","subject_id","condition","n_block","n_trialIdx","f_timing_condition","n_scheduled_delay","n_trial_start_time","n_rewarded_time_fin","n_sell_time_fin","n_time_waited_fin","RT_fin","n_trial_earnings_fin","n_total_earnings_fin","keypress_times"
"1","R_1MKYh3TaGrUwPaO","standard","1","1","HP","8","0","8.002","8.346","8.346","0.344","3","3",""
"2","R_1MKYh3TaGrUwPaO","standard","1","2","HP","4","9.367","13.37","13.71","4.343","0.34","3","6",""
"3","R_1MKYh3TaGrUwPaO","standard","1","3","HP","12","14.711","26.711","27.053","12.342","0.342","3","9",""
"4","R_1MKYh3TaGrUwPaO","standard","1","4","HP","6","28.058","34.066","34.404","6.346","0.338","3","12",""
"5","R_1MKYh3TaGrUwPaO","standard","1","5","HP","20","35.409","55.41","55.742","20.333","0.332","3","15",""
"6","R_1MKYh3TaGrUwPaO","standard","1","6","HP","18","56.745","74.754","75.078","18.333","0.324","3","18",""
"7","R_1MKYh3TaGrUwPaO","standard","1","7","HP","6","76.082","82.09","82.436","6.354","0.346","3","21",""
"8","R_1MKYh3TaGrUwPaO","standard","1","8","HP","2","83.449","85.459","86.133","2.684","0.674","3","24",""
"9","R_1MKYh3TaGrUwPaO","standard","1","9","HP","4","87.134","91.138","91.489","4.355","0.351","3","27",""
"10","R_1MKYh3TaGrUwPaO","standard","1","10","HP","18","92.502","110.513","110.892","18.39","0.379","3","30",""
"11","R_1MKYh3TaGrUwPaO","standard","1","11","HP","8","111.898","119.907","120.282","8.384","0.375","3","30","5226"
"12","R_1MKYh3TaGrUwPaO","standard","1","12","HP","12","121.293","133.297","133.662","12.369","0.365","3","33",""
"13","R_1MKYh3TaGrUwPaO","standard","1","13","HP","14","134.666","148.673","149.09","14.424","0.417","3","36",""
"14","R_1MKYh3TaGrUwPaO","standard","1","14","HP","2","150.101","152.106","152.495","2.394","0.389","3","39",""
"15","R_1MKYh3TaGrUwPaO","standard","1","15","HP","16","153.498","169.515","169.898","16.4","0.383","3","42",""
"16","R_1MKYh3TaGrUwPaO","standard","1","16","HP","12","170.914","182.922","183.313","12.399","0.391","3","45",""
"17","R_1MKYh3TaGrUwPaO","standard","1","17","HP","4","184.322","188.33","188.706","4.384","0.376","3","48",""
"18","R_1MKYh3TaGrUwPaO","standard","1","18","HP","18","189.713","207.72","208.096","18.383","0.376","3","51",""
"19","R_1MKYh3TaGrUwPaO","standard","1","19","HP","4","209.098","213.12","213.69","4.592","0.57","3","54",""
"20","R_1MKYh3TaGrUwPaO","standard","1","20","HP","18","214.699","232.707","233.057","18.358","0.35","3","57",""
"21","R_1MKYh3TaGrUwPaO","standard","1","21","HP","8","234.058","242.066","242.44","8.382","0.374","3","60",""
"22","R_1MKYh3TaGrUwPaO","standard","1","22","HP","8","243.442","251.451","251.89","8.448","0.439","3","63",""
"23","R_1MKYh3TaGrUwPaO","standard","1","23","HP","18","252.898","270.907","271.248","18.35","0.341","3","66",""
"24","R_1MKYh3TaGrUwPaO","standard","1","24","HP","14","272.25","286.267","286.662","14.412","0.395","3","69",""
"25","R_1MKYh3TaGrUwPaO","standard","1","25","HP","6","287.667","293.674","294.267","6.6","0.593","3","72",""
"26","R_1MKYh3TaGrUwPaO","standard","1","26","HP","4","295.275","299.283","299.623","4.348","0.34","3","75",""
"27","R_1MKYh3TaGrUwPaO","standard","1","27","HP","2","300.627","302.634","303.103","2.476","0.469","3","78",""
"28","R_1MKYh3TaGrUwPaO","standard","1","28","HP","2","304.107","306.111","306.515","2.408","0.404","3","81",""
"29","R_1MKYh3TaGrUwPaO","standard","1","29","HP","12","307.518","319.522","320.008","12.49","0.486","3","84",""
"30","R_1MKYh3TaGrUwPaO","standard","1","30","HP","6","321.008","327.009","327.43","6.422","0.421","3","87",""
"31","R_1MKYh3TaGrUwPaO","standard","1","31","HP","10","328.434","338.442","338.82","10.386","0.378","3","90",""
"32","R_1MKYh3TaGrUwPaO","standard","1","32","HP","12","339.826","351.831","352.202","12.376","0.371","3","93",""
"33","R_1MKYh3TaGrUwPaO","standard","1","33","HP","14","353.206","367.208","367.786","14.58","0.578","3","96",""
"34","R_1MKYh3TaGrUwPaO","standard","1","34","HP","10","368.799","378.801","379.234","10.435","0.433","3","99",""
"35","R_1MKYh3TaGrUwPaO","standard","1","35","HP","16","380.246","396.25","396.671","16.425","0.421","3","102",""
"36","R_1MKYh3TaGrUwPaO","standard","1","36","HP","20","397.674","417.681","418.105","20.431","0.424","3","105",""
"37","R_1MKYh3TaGrUwPaO","standard","1","37","HP","2","419.118","421.125","421.488","2.37","0.363","3","108",""
"38","R_1MKYh3TaGrUwPaO","standard","1","38","HP","2","422.502","424.506","424.85","2.348","0.344","3","111",""
"39","R_1MKYh3TaGrUwPaO","standard","1","39","HP","2","425.859","427.866","428.247","2.388","0.381","3","114",""
"40","R_1MKYh3TaGrUwPaO","standard","1","40","HP","20","429.25","449.258","449.615","20.365","0.357","3","117",""
"41","R_1MKYh3TaGrUwPaO","standard","1","41","HP","2","450.618","452.626","453.035","2.417","0.409","3","120",""
"42","R_1MKYh3TaGrUwPaO","standard","1","42","HP","2","454.042","456.051","456.418","2.376","0.367","3","123",""
"43","R_1MKYh3TaGrUwPaO","standard","1","43","HP","8","457.426","465.432","465.845","8.419","0.413","3","126",""
"44","R_1MKYh3TaGrUwPaO","standard","1","44","HP","10","466.863","476.878","477.335","10.472","0.457","3","129",""
"45","R_1MKYh3TaGrUwPaO","standard","1","45","HP","2","478.338","480.346","NA","3.009","NA","0","129",""
"46","R_1MKYh3TaGrUwPaO","standard","1","46","HP","14","482.355","496.358","NA","15.007","NA","0","129",""
"47","R_1MKYh3TaGrUwPaO","standard","1","47","HP","6","498.369","504.377","504.757","6.388","0.38","3","132",""
"48","R_1MKYh3TaGrUwPaO","standard","1","48","HP","18","505.76","523.775","524.108","18.348","0.333","3","135",""
"49","R_1MKYh3TaGrUwPaO","standard","1","49","HP","8","525.111","533.113","533.506","8.395","0.393","3","138",""
"50","R_1MKYh3TaGrUwPaO","standard","1","50","HP","18","534.511","552.512","NA","19.005","NA","0","138",""
"51","R_1MKYh3TaGrUwPaO","standard","1","51","HP","8","554.522","562.53","562.894","8.372","0.364","3","141",""
"52","R_1MKYh3TaGrUwPaO","standard","1","52","HP","8","563.898","571.917","572.29","8.392","0.373","3","144",""
"53","R_1MKYh3TaGrUwPaO","standard","1","53","HP","18","573.303","591.307","591.617","18.314","0.31","3","147",""
"54","R_1MKYh3TaGrUwPaO","standard","1","54","HP","20","592.618","612.622","612.993","20.375","0.371","3","150",""
"55","R_1MKYh3TaGrUwPaO","standard","1","55","HP","14","613.994","628.003","628.391","14.397","0.388","3","153",""
"56","R_1MKYh3TaGrUwPaO","standard","1","56","HP","12","629.395","641.404","641.772","12.377","0.368","3","156",""
"57","R_1MKYh3TaGrUwPaO","standard","1","57","HP","20","642.787","662.794","663.155","20.368","0.361","3","159",""
"58","R_1MKYh3TaGrUwPaO","standard","1","58","HP","4","664.162","668.17","668.563","4.401","0.393","3","162",""
"59","R_1MKYh3TaGrUwPaO","standard","1","59","HP","8","669.57","677.578","677.916","8.346","0.338","3","165",""
"60","R_1MKYh3TaGrUwPaO","standard","1","60","HP","20","678.919","698.922","699.292","20.373","0.37","3","168",""
"61","R_1MKYh3TaGrUwPaO","standard","1","61","HP","10","700.298","710.306","710.662","10.364","0.356","3","171",""
"62","R_1MKYh3TaGrUwPaO","standard","1","62","HP","12","711.667","723.674","724.074","12.407","0.4","3","174",""
"63","R_1MKYh3TaGrUwPaO","standard","1","63","HP","18","725.082","743.089","743.461","18.379","0.372","3","177",""
"64","R_1MKYh3TaGrUwPaO","standard","1","64","HP","2","744.466","746.474","746.828","2.362","0.354","3","180",""
"65","R_1MKYh3TaGrUwPaO","standard","1","65","HP","16","747.833","763.833","764.177","16.344","0.344","3","183",""
"66","R_1MKYh3TaGrUwPaO","standard","1","66","HP","4","765.186","769.193","769.532","4.346","0.339","3","186",""
"67","R_1MKYh3TaGrUwPaO","standard","1","67","HP","14","770.533","784.537","784.877","14.344","0.34","3","189",""
"68","R_1MKYh3TaGrUwPaO","standard","1","68","HP","14","785.883","799.89","800.275","14.392","0.385","3","192",""
"69","R_1MKYh3TaGrUwPaO","standard","1","69","HP","8","801.281","809.301","809.672","8.391","0.371","3","195",""
"70","R_1MKYh3TaGrUwPaO","standard","1","70","HP","18","810.673","828.681","829.038","18.365","0.357","3","198",""
"71","R_1MKYh3TaGrUwPaO","standard","1","71","HP","8","830.041","838.048","838.414","8.373","0.366","3","201",""
"72","R_1MKYh3TaGrUwPaO","standard","1","72","HP","16","839.415","855.419","855.763","16.348","0.344","3","204",""
"73","R_1MKYh3TaGrUwPaO","standard","1","73","HP","16","856.771","872.778","873.171","16.4","0.393","3","207",""
"74","R_1MKYh3TaGrUwPaO","standard","1","74","HP","12","874.191","886.195","886.522","12.331","0.327","3","210",""
"75","R_1MKYh3TaGrUwPaO","standard","2","1","LP","8.51632916846187","0","8.522","8.88","8.88","0.358","3","213",NA
"76","R_1MKYh3TaGrUwPaO","standard","2","2","LP","3.49090909090909","9.895","13.387","13.756","3.861","0.369","3","216",NA
"77","R_1MKYh3TaGrUwPaO","standard","2","3","LP","2.15079707022835","14.771","16.922","17.341","2.57","0.419","3","219",NA
"78","R_1MKYh3TaGrUwPaO","standard","2","4","LP","13.0392072382594","18.346","31.387","31.776","13.43","0.389","3","222",NA
"79","R_1MKYh3TaGrUwPaO","standard","2","5","LP","5.5010771219302","32.779","38.284","38.606","5.827","0.322","3","225",NA
"80","R_1MKYh3TaGrUwPaO","standard","2","6","LP","3.49090909090909","39.615","43.121","43.533","3.918","0.412","3","228",NA
"81","R_1MKYh3TaGrUwPaO","standard","2","7","LP","13.0392072382594","44.538","57.594","57.919","13.381","0.325","3","231",NA
"82","R_1MKYh3TaGrUwPaO","standard","2","8","LP","5.5010771219302","58.923","64.427","64.795","5.872","0.368","3","234",NA
"83","R_1MKYh3TaGrUwPaO","standard","2","9","LP","19.8235243429556","65.804","85.63","85.993","20.189","0.363","3","237",NA
"84","R_1MKYh3TaGrUwPaO","standard","2","10","LP","13.0392072382594","86.995","100.036","100.501","13.506","0.465","3","240",NA
"85","R_1MKYh3TaGrUwPaO","standard","2","11","LP","3.49090909090909","101.51","105.004","105.358","3.848","0.354","3","243",NA
"86","R_1MKYh3TaGrUwPaO","standard","2","12","LP","1.25738905644119","106.363","107.627","108.058","1.695","0.431","3","246",NA
"87","R_1MKYh3TaGrUwPaO","standard","2","13","LP","0.264713485566566","109.067","109.338","110.33","1.263","0.992","3","249",NA
"88","R_1MKYh3TaGrUwPaO","standard","2","14","LP","30","111.339","141.347","141.743","30.404","0.396","3","252",NA
"89","R_1MKYh3TaGrUwPaO","standard","2","15","LP","2.15079707022835","142.748","144.901","145.246","2.498","0.345","3","255",NA
"90","R_1MKYh3TaGrUwPaO","standard","2","16","LP","5.5010771219302","146.251","151.755","152.16","5.909","0.405","3","258",NA
"91","R_1MKYh3TaGrUwPaO","standard","2","17","LP","8.51632916846187","153.173","161.702","162.075","8.902","0.373","3","261",NA
"92","R_1MKYh3TaGrUwPaO","standard","2","18","LP","19.8235243429556","163.082","NaN","179.011","15.929","NaN","0","261",NA
"93","R_1MKYh3TaGrUwPaO","standard","2","19","LP","1.25738905644119","180.016","181.275","181.629","1.613","0.354","3","264",NA
"94","R_1MKYh3TaGrUwPaO","standard","2","20","LP","2.15079707022835","182.635","184.787","185.116","2.481","0.329","3","267",NA
"95","R_1MKYh3TaGrUwPaO","standard","2","21","LP","0.661783713916415","186.119","186.788","187.141","1.022","0.353","3","270",NA
"96","R_1MKYh3TaGrUwPaO","standard","2","22","LP","0.661783713916415","188.147","188.813","189.421","1.274","0.608","3","273",NA
"97","R_1MKYh3TaGrUwPaO","standard","2","23","LP","3.49090909090909","190.423","193.918","194.446","4.023","0.528","3","276",NA
"98","R_1MKYh3TaGrUwPaO","standard","2","24","LP","0.264713485566566","195.451","195.723","196.141","0.69","0.418","3","279",NA
"99","R_1MKYh3TaGrUwPaO","standard","2","25","LP","13.0392072382594","197.146","210.188","210.453","13.307","0.265","3","282",NA
"100","R_1MKYh3TaGrUwPaO","standard","2","26","LP","0.661783713916415","211.459","212.125","212.499","1.04","0.374","3","285",NA
"101","R_1MKYh3TaGrUwPaO","standard","2","27","LP","8.51632916846187","213.507","222.026","222.385","8.878","0.359","3","288",NA
"102","R_1MKYh3TaGrUwPaO","standard","2","28","LP","8.51632916846187","223.387","231.908","232.279","8.892","0.371","3","291",NA
"103","R_1MKYh3TaGrUwPaO","standard","2","29","LP","2.15079707022835","233.284","235.436","235.853","2.569","0.417","3","294",NA
"104","R_1MKYh3TaGrUwPaO","standard","2","30","LP","5.5010771219302","236.874","242.383","242.757","5.883","0.374","3","297",NA
"105","R_1MKYh3TaGrUwPaO","standard","2","31","LP","8.51632916846187","243.763","252.287","252.649","8.886","0.362","3","300",NA
"106","R_1MKYh3TaGrUwPaO","standard","2","32","LP","0.264713485566566","253.651","253.916","254.306","0.655","0.39","3","303",NA
"107","R_1MKYh3TaGrUwPaO","standard","2","33","LP","13.0392072382594","255.319","268.363","268.775","13.456","0.412","3","306",NA
"108","R_1MKYh3TaGrUwPaO","standard","2","34","LP","2.15079707022835","269.78","271.932","272.27","2.49","0.338","3","309",NA
"109","R_1MKYh3TaGrUwPaO","standard","2","35","LP","0.661783713916415","273.275","273.937","274.288","1.013","0.351","3","312",NA
"110","R_1MKYh3TaGrUwPaO","standard","2","36","LP","30","275.305","NaN","290.421","15.116","NaN","0","312",NA
"111","R_1MKYh3TaGrUwPaO","standard","2","37","LP","19.8235243429556","291.428","NaN","305.19","13.762","NaN","0","312",NA
"112","R_1MKYh3TaGrUwPaO","standard","2","38","LP","30","306.202","NaN","319.23","13.028","NaN","0","312",NA
"113","R_1MKYh3TaGrUwPaO","standard","2","39","LP","19.8235243429556","320.235","NaN","331.787","11.552","NaN","0","312",NA
"114","R_1MKYh3TaGrUwPaO","standard","2","40","LP","2.15079707022835","332.795","334.948","335.302","2.507","0.354","3","315",NA
"115","R_1MKYh3TaGrUwPaO","standard","2","41","LP","0.661783713916415","336.31","336.979","337.336","1.026","0.357","3","318",NA
"116","R_1MKYh3TaGrUwPaO","standard","2","42","LP","8.51632916846187","338.338","346.859","347.261","8.923","0.402","3","321",NA
"117","R_1MKYh3TaGrUwPaO","standard","2","43","LP","13.0392072382594","348.267","NaN","359.357","11.09","NaN","0","321",NA
"118","R_1MKYh3TaGrUwPaO","standard","2","44","LP","0.264713485566566","360.363","360.628","361.111","0.748","0.483","3","324",NA
"119","R_1MKYh3TaGrUwPaO","standard","2","45","LP","0.264713485566566","362.114","362.389","362.694","0.58","0.305","3","327",NA
"120","R_1MKYh3TaGrUwPaO","standard","2","46","LP","19.8235243429556","363.706","NaN","373.727","10.021","NaN","0","327",NA
"121","R_1MKYh3TaGrUwPaO","standard","2","47","LP","3.49090909090909","374.731","378.226","378.602","3.871","0.376","3","330",NA
"122","R_1MKYh3TaGrUwPaO","standard","2","48","LP","30","379.605","NaN","388.967","9.362","NaN","0","330",NA
"123","R_1MKYh3TaGrUwPaO","standard","2","49","LP","3.49090909090909","389.97","393.466","393.835","3.865","0.369","3","333",NA
"124","R_1MKYh3TaGrUwPaO","standard","2","50","LP","3.49090909090909","394.839","398.332","398.68","3.841","0.348","3","336",NA
"125","R_1MKYh3TaGrUwPaO","standard","2","51","LP","19.8235243429556","399.682","NaN","409.84","10.158","NaN","0","336",NA
"126","R_1MKYh3TaGrUwPaO","standard","2","52","LP","2.15079707022835","410.842","412.995","413.425","2.583","0.43","3","339",NA
"127","R_1MKYh3TaGrUwPaO","standard","2","53","LP","30","414.434","NaN","424.548","10.114","NaN","0","339",NA
"128","R_1MKYh3TaGrUwPaO","standard","2","54","LP","5.5010771219302","425.569","431.086","431.456","5.887","0.37","3","342",NA
"129","R_1MKYh3TaGrUwPaO","standard","2","55","LP","19.8235243429556","432.458","NaN","441.394","8.936","NaN","0","342",NA
"130","R_1MKYh3TaGrUwPaO","standard","2","56","LP","0.264713485566566","442.412","442.682","443.262","0.85","0.58","3","345",NA
"131","R_1MKYh3TaGrUwPaO","standard","2","57","LP","1.25738905644119","444.266","445.531","446.097","1.831","0.566","3","348",NA
"132","R_1MKYh3TaGrUwPaO","standard","2","58","LP","13.0392072382594","447.101","NaN","456.248","9.147","NaN","0","348",NA
"133","R_1MKYh3TaGrUwPaO","standard","2","59","LP","0.264713485566566","457.252","457.521","457.896","0.644","0.375","3","351",NA
"134","R_1MKYh3TaGrUwPaO","standard","2","60","LP","30","458.899","NaN","468.921","10.022","NaN","0","351",NA
"135","R_1MKYh3TaGrUwPaO","standard","2","61","LP","0.661783713916415","469.923","470.588","470.998","1.075","0.41","3","354",NA
"136","R_1MKYh3TaGrUwPaO","standard","2","62","LP","5.5010771219302","472.003","477.52","477.884","5.881","0.364","3","357",NA
"137","R_1MKYh3TaGrUwPaO","standard","2","63","LP","30","478.892","NaN","488.969","10.077","NaN","0","357",NA
"138","R_1MKYh3TaGrUwPaO","standard","2","64","LP","0.264713485566566","489.972","490.242","490.589","0.617","0.347","3","360",NA
"139","R_1MKYh3TaGrUwPaO","standard","2","65","LP","0.661783713916415","491.597","492.267","492.652","1.055","0.385","3","363",NA
"140","R_1MKYh3TaGrUwPaO","standard","2","66","LP","19.8235243429556","493.659","NaN","503.655","9.996","NaN","0","363",NA
"141","R_1MKYh3TaGrUwPaO","standard","2","67","LP","1.25738905644119","504.659","505.918","506.28","1.621","0.362","3","366",NA
"142","R_1MKYh3TaGrUwPaO","standard","2","68","LP","1.25738905644119","507.283","508.547","508.973","1.69","0.426","3","369",NA
"143","R_1MKYh3TaGrUwPaO","standard","2","69","LP","3.49090909090909","509.979","513.476","513.902","3.923","0.426","3","372",NA
"144","R_1MKYh3TaGrUwPaO","standard","2","70","LP","30","514.909","NaN","524.588","9.679","NaN","0","372",NA
"145","R_1MKYh3TaGrUwPaO","standard","2","71","LP","5.5010771219302","525.602","531.108","531.451","5.849","0.343","3","375",NA
"146","R_1MKYh3TaGrUwPaO","standard","2","72","LP","2.15079707022835","532.472","534.627","535.006","2.534","0.379","3","378",NA
"147","R_1MKYh3TaGrUwPaO","standard","2","73","LP","13.0392072382594","536.008","NaN","545.424","9.416","NaN","0","378",NA
"148","R_1MKYh3TaGrUwPaO","standard","2","74","LP","13.0392072382594","546.427","NaN","556.293","9.866","NaN","0","378",NA
"149","R_1MKYh3TaGrUwPaO","standard","2","75","LP","30","557.301","NaN","566.327","9.026","NaN","0","378",NA
"150","R_1MKYh3TaGrUwPaO","standard","2","76","LP","0.264713485566566","567.332","567.603","568.03","0.698","0.427","3","381",NA
"151","R_1MKYh3TaGrUwPaO","standard","2","77","LP","0.661783713916415","569.035","569.7","570.033","0.998","0.333","3","384",NA
"152","R_1MKYh3TaGrUwPaO","standard","2","78","LP","1.25738905644119","571.04","572.299","572.838","1.798","0.539","3","387",NA
"153","R_1MKYh3TaGrUwPaO","standard","2","79","LP","0.264713485566566","573.843","574.114","574.57","0.727","0.456","3","390",NA
"154","R_1MKYh3TaGrUwPaO","standard","2","80","LP","2.15079707022835","575.571","577.722","578.149","2.578","0.427","3","393",NA
"155","R_1MKYh3TaGrUwPaO","standard","2","81","LP","5.5010771219302","579.156","584.66","585.116","5.96","0.456","3","396",NA
"156","R_1MKYh3TaGrUwPaO","standard","2","82","LP","0.661783713916415","586.116","586.779","587.196","1.08","0.417","3","399",NA
"157","R_1MKYh3TaGrUwPaO","standard","2","83","LP","8.51632916846187","588.203","596.723","597.147","8.944","0.424","3","402",NA
