"","subject_id","condition","n_block","n_trialIdx","f_timing_condition","n_scheduled_delay","n_trial_start_time","n_rewarded_time_fin","n_sell_time_fin","n_time_waited_fin","RT_fin","n_trial_earnings_fin","n_total_earnings_fin","keypress_times"
"1","R_1nMWsb12I7KlQSV","standard","1","1","HP","10","0.002","10.006","10.372","10.37","0.366","3","3",""
"2","R_1nMWsb12I7KlQSV","standard","1","2","HP","18","11.373","29.375","29.66","18.287","0.285","3","6",""
"3","R_1nMWsb12I7KlQSV","standard","1","3","HP","18","30.662","48.663","48.939","18.277","0.276","3","9",""
"4","R_1nMWsb12I7KlQSV","standard","1","4","HP","20","49.94","69.942","70.286","20.346","0.344","3","12",""
"5","R_1nMWsb12I7KlQSV","standard","1","5","HP","20","71.287","91.288","91.564","20.277","0.276","3","15",""
"6","R_1nMWsb12I7KlQSV","standard","1","6","HP","4","92.565","96.566","97.023","4.458","0.457","3","18",""
"7","R_1nMWsb12I7KlQSV","standard","1","7","HP","10","98.024","108.025","108.357","10.333","0.332","3","21",""
"8","R_1nMWsb12I7KlQSV","standard","1","8","HP","6","109.358","115.359","115.682","6.324","0.323","3","24",""
"9","R_1nMWsb12I7KlQSV","standard","1","9","HP","10","116.683","126.684","126.972","10.289","0.288","3","27",""
"10","R_1nMWsb12I7KlQSV","standard","1","10","HP","12","127.973","139.975","140.318","12.345","0.343","3","30",""
"11","R_1nMWsb12I7KlQSV","standard","1","11","HP","16","141.319","157.32","157.686","16.367","0.366","3","33",""
"12","R_1nMWsb12I7KlQSV","standard","1","12","HP","18","158.687","176.688","177.037","18.35","0.349","3","36",""
"13","R_1nMWsb12I7KlQSV","standard","1","13","HP","6","178.039","184.04","184.396","6.357","0.356","3","39",""
"14","R_1nMWsb12I7KlQSV","standard","1","14","HP","18","185.397","203.399","203.675","18.278","0.276","3","42",""
"15","R_1nMWsb12I7KlQSV","standard","1","15","HP","2","204.676","206.678","207.007","2.331","0.329","3","45",""
"16","R_1nMWsb12I7KlQSV","standard","1","16","HP","8","208.008","216.01","216.415","8.407","0.405","3","48",""
"17","R_1nMWsb12I7KlQSV","standard","1","17","HP","2","217.415","219.416","219.743","2.328","0.327","3","51",""
"18","R_1nMWsb12I7KlQSV","standard","1","18","HP","18","220.744","238.745","239.089","18.345","0.344","3","54",""
"19","R_1nMWsb12I7KlQSV","standard","1","19","HP","20","240.09","260.091","260.453","20.363","0.362","3","57",""
"20","R_1nMWsb12I7KlQSV","standard","1","20","HP","20","261.454","281.456","281.835","20.381","0.379","3","60",""
"21","R_1nMWsb12I7KlQSV","standard","1","21","HP","18","282.836","300.837","301.177","18.341","0.34","3","63",""
"22","R_1nMWsb12I7KlQSV","standard","1","22","HP","6","302.178","308.179","308.517","6.339","0.338","3","66",""
"23","R_1nMWsb12I7KlQSV","standard","1","23","HP","16","309.517","325.518","325.827","16.31","0.309","3","69",""
"24","R_1nMWsb12I7KlQSV","standard","1","24","HP","16","326.827","342.828","343.239","16.412","0.411","3","72",""
"25","R_1nMWsb12I7KlQSV","standard","1","25","HP","16","344.24","360.241","360.588","16.348","0.347","3","75",""
"26","R_1nMWsb12I7KlQSV","standard","1","26","HP","10","361.59","371.59","372.015","10.425","0.425","3","78",""
"27","R_1nMWsb12I7KlQSV","standard","1","27","HP","12","373.016","385.017","385.381","12.365","0.364","3","81",""
"28","R_1nMWsb12I7KlQSV","standard","1","28","HP","20","386.382","406.383","406.777","20.395","0.394","3","84",""
"29","R_1nMWsb12I7KlQSV","standard","1","29","HP","4","407.778","411.779","412.135","4.357","0.356","3","87",""
"30","R_1nMWsb12I7KlQSV","standard","1","30","HP","14","413.136","427.137","427.484","14.348","0.347","3","90",""
"31","R_1nMWsb12I7KlQSV","standard","1","31","HP","10","428.485","438.486","438.887","10.402","0.401","3","93",""
"32","R_1nMWsb12I7KlQSV","standard","1","32","HP","12","439.888","451.889","452.308","12.42","0.419","3","96",""
"33","R_1nMWsb12I7KlQSV","standard","1","33","HP","20","453.309","473.31","473.617","20.308","0.307","3","99",""
"34","R_1nMWsb12I7KlQSV","standard","1","34","HP","10","474.619","484.619","484.942","10.323","0.323","3","102",""
"35","R_1nMWsb12I7KlQSV","standard","1","35","HP","10","485.943","495.944","496.34","10.397","0.396","3","105",""
"36","R_1nMWsb12I7KlQSV","standard","1","36","HP","14","497.341","511.342","511.703","14.362","0.361","3","108",""
"37","R_1nMWsb12I7KlQSV","standard","1","37","HP","20","512.706","532.706","533.013","20.307","0.307","3","111",""
"38","R_1nMWsb12I7KlQSV","standard","1","38","HP","18","534.016","552.017","552.369","18.353","0.352","3","114",""
"39","R_1nMWsb12I7KlQSV","standard","1","39","HP","2","553.37","555.371","555.822","2.452","0.451","3","117",""
"40","R_1nMWsb12I7KlQSV","standard","1","40","HP","6","556.823","562.824","563.21","6.387","0.386","3","120",""
"41","R_1nMWsb12I7KlQSV","standard","1","41","HP","12","564.211","576.211","576.542","12.331","0.331","3","123",""
"42","R_1nMWsb12I7KlQSV","standard","1","42","HP","4","577.543","581.543","581.869","4.326","0.326","3","126",""
"43","R_1nMWsb12I7KlQSV","standard","1","43","HP","8","582.87","590.871","591.309","8.439","0.438","3","129",""
"44","R_1nMWsb12I7KlQSV","standard","1","44","HP","8","592.31","600.311","600.675","8.365","0.364","3","132",""
"45","R_1nMWsb12I7KlQSV","standard","1","45","HP","12","601.676","613.677","614.175","12.499","0.498","3","135",""
"46","R_1nMWsb12I7KlQSV","standard","1","46","HP","18","615.176","633.178","633.545","18.369","0.367","3","138",""
"47","R_1nMWsb12I7KlQSV","standard","1","47","HP","6","634.546","640.547","640.961","6.415","0.414","3","141",""
"48","R_1nMWsb12I7KlQSV","standard","1","48","HP","8","641.962","649.964","650.44","8.478","0.476","3","144",""
"49","R_1nMWsb12I7KlQSV","standard","1","49","HP","12","651.441","663.442","663.843","12.402","0.401","3","147",""
"50","R_1nMWsb12I7KlQSV","standard","1","50","HP","20","664.844","684.846","685.198","20.354","0.352","3","150",""
"51","R_1nMWsb12I7KlQSV","standard","1","51","HP","16","686.199","702.2","702.569","16.37","0.369","3","153",""
"52","R_1nMWsb12I7KlQSV","standard","1","52","HP","14","703.571","717.572","717.912","14.341","0.34","3","156",""
"53","R_1nMWsb12I7KlQSV","standard","1","53","HP","4","718.913","722.914","723.393","4.48","0.479","3","159",""
"54","R_1nMWsb12I7KlQSV","standard","1","54","HP","16","724.394","740.395","740.762","16.368","0.367","3","162",""
"55","R_1nMWsb12I7KlQSV","standard","1","55","HP","16","741.763","757.769","758.35","16.587","0.581","3","162","13947"
"56","R_1nMWsb12I7KlQSV","standard","1","56","HP","12","759.351","771.352","771.624","12.273","0.272","3","165",""
"57","R_1nMWsb12I7KlQSV","standard","1","57","HP","4","772.625","776.626","777.026","4.401","0.4","3","168",""
"58","R_1nMWsb12I7KlQSV","standard","1","58","HP","16","778.027","794.028","794.412","16.385","0.384","3","171",""
"59","R_1nMWsb12I7KlQSV","standard","1","59","HP","8","795.412","803.413","803.782","8.37","0.369","3","174",""
"60","R_1nMWsb12I7KlQSV","standard","1","60","HP","16","804.784","820.784","821.194","16.41","0.41","3","177",""
"61","R_1nMWsb12I7KlQSV","standard","1","61","HP","20","822.195","842.196","NA","21.004","NA","0","177",""
"62","R_1nMWsb12I7KlQSV","standard","1","62","HP","14","844.2","858.201","858.539","14.339","0.338","3","180",""
"63","R_1nMWsb12I7KlQSV","standard","1","63","HP","6","859.54","865.541","865.847","6.307","0.306","3","183",""
"64","R_1nMWsb12I7KlQSV","standard","1","64","HP","20","866.848","886.849","887.138","20.29","0.289","3","186",""
"65","R_1nMWsb12I7KlQSV","standard","1","65","HP","4","888.139","892.14","892.454","4.315","0.314","3","189",""
"66","R_1nMWsb12I7KlQSV","standard","1","66","HP","4","893.455","897.456","897.797","4.342","0.341","3","192",""
"67","R_1nMWsb12I7KlQSV","standard","2","1","LP","0.661783713916415","0","0.662","1.544","1.544","0.882","3","195",NA
"68","R_1nMWsb12I7KlQSV","standard","2","2","LP","3.49090909090909","2.544","6.036","6.423","3.879","0.387","3","198",NA
"69","R_1nMWsb12I7KlQSV","standard","2","3","LP","19.8235243429556","7.424","27.247","27.58","20.156","0.333","3","201",NA
"70","R_1nMWsb12I7KlQSV","standard","2","4","LP","19.8235243429556","28.581","48.405","48.8","20.219","0.395","3","204",NA
"71","R_1nMWsb12I7KlQSV","standard","2","5","LP","13.0392072382594","49.8","62.84","63.2","13.4","0.36","3","207",NA
"72","R_1nMWsb12I7KlQSV","standard","2","6","LP","30","64.201","94.203","94.523","30.322","0.32","3","210",NA
"73","R_1nMWsb12I7KlQSV","standard","2","7","LP","13.0392072382594","95.523","108.563","108.916","13.393","0.353","3","213",NA
"74","R_1nMWsb12I7KlQSV","standard","2","8","LP","0.661783713916415","109.916","110.578","111.016","1.1","0.438","3","216",NA
"75","R_1nMWsb12I7KlQSV","standard","2","9","LP","3.49090909090909","112.016","115.507","115.822","3.806","0.315","3","219",NA
"76","R_1nMWsb12I7KlQSV","standard","2","10","LP","8.51632916846187","116.823","125.34","125.703","8.88","0.363","3","222",NA
"77","R_1nMWsb12I7KlQSV","standard","2","11","LP","5.5010771219302","126.703","132.206","132.581","5.878","0.375","3","225",NA
"78","R_1nMWsb12I7KlQSV","standard","2","12","LP","8.51632916846187","133.582","142.099","142.413","8.831","0.314","3","228",NA
"79","R_1nMWsb12I7KlQSV","standard","2","13","LP","0.661783713916415","143.414","144.078","144.515","1.101","0.437","3","231",NA
"80","R_1nMWsb12I7KlQSV","standard","2","14","LP","5.5010771219302","145.515","151.017","151.354","5.839","0.337","3","234",NA
"81","R_1nMWsb12I7KlQSV","standard","2","15","LP","5.5010771219302","152.354","157.856","158.196","5.842","0.34","3","237",NA
"82","R_1nMWsb12I7KlQSV","standard","2","16","LP","8.51632916846187","159.197","167.714","168.071","8.874","0.357","3","240",NA
"83","R_1nMWsb12I7KlQSV","standard","2","17","LP","5.5010771219302","169.072","174.574","174.934","5.862","0.36","3","243",NA
"84","R_1nMWsb12I7KlQSV","standard","2","18","LP","8.51632916846187","175.934","184.451","184.787","8.853","0.336","3","246",NA
"85","R_1nMWsb12I7KlQSV","standard","2","19","LP","19.8235243429556","185.788","205.612","206.074","20.286","0.462","3","249",NA
"86","R_1nMWsb12I7KlQSV","standard","2","20","LP","8.51632916846187","207.076","215.593","215.907","8.831","0.314","3","252",NA
"87","R_1nMWsb12I7KlQSV","standard","2","21","LP","5.5010771219302","216.908","222.409","222.724","5.816","0.315","3","255",NA
"88","R_1nMWsb12I7KlQSV","standard","2","22","LP","5.5010771219302","223.724","229.226","229.678","5.954","0.452","3","258",NA
"89","R_1nMWsb12I7KlQSV","standard","2","23","LP","1.25738905644119","230.679","231.937","232.414","1.735","0.477","3","261",NA
"90","R_1nMWsb12I7KlQSV","standard","2","24","LP","8.51632916846187","233.415","241.931","242.324","8.909","0.393","3","264",NA
"91","R_1nMWsb12I7KlQSV","standard","2","25","LP","1.25738905644119","243.325","244.583","244.944","1.619","0.361","3","267",NA
"92","R_1nMWsb12I7KlQSV","standard","2","26","LP","8.51632916846187","245.948","254.465","254.775","8.827","0.31","3","270",NA
"93","R_1nMWsb12I7KlQSV","standard","2","27","LP","0.264713485566566","255.776","256.041","256.421","0.645","0.38","3","273",NA
"94","R_1nMWsb12I7KlQSV","standard","2","28","LP","2.15079707022835","257.421","259.572","259.887","2.466","0.315","3","276",NA
"95","R_1nMWsb12I7KlQSV","standard","2","29","LP","19.8235243429556","260.888","280.712","281.174","20.286","0.462","3","279",NA
"96","R_1nMWsb12I7KlQSV","standard","2","30","LP","0.661783713916415","282.175","282.837","283.386","1.211","0.549","3","282",NA
"97","R_1nMWsb12I7KlQSV","standard","2","31","LP","0.661783713916415","284.387","285.049","285.421","1.034","0.372","3","285",NA
"98","R_1nMWsb12I7KlQSV","standard","2","32","LP","19.8235243429556","286.421","306.245","306.556","20.135","0.311","3","288",NA
"99","R_1nMWsb12I7KlQSV","standard","2","33","LP","0.661783713916415","307.556","308.218","308.537","0.981","0.319","3","291",NA
"100","R_1nMWsb12I7KlQSV","standard","2","34","LP","1.25738905644119","309.538","310.796","311.11","1.572","0.314","3","294",NA
"101","R_1nMWsb12I7KlQSV","standard","2","35","LP","0.661783713916415","312.111","312.772","313.079","0.968","0.307","3","297",NA
"102","R_1nMWsb12I7KlQSV","standard","2","36","LP","30","314.08","344.08","344.387","30.307","0.307","3","300",NA
"103","R_1nMWsb12I7KlQSV","standard","2","37","LP","2.15079707022835","345.387","347.538","347.845","2.458","0.307","3","303",NA
"104","R_1nMWsb12I7KlQSV","standard","2","38","LP","0.264713485566566","348.846","349.111","349.43","0.584","0.319","3","306",NA
"105","R_1nMWsb12I7KlQSV","standard","2","39","LP","13.0392072382594","350.431","363.471","363.823","13.392","0.352","3","309",NA
"106","R_1nMWsb12I7KlQSV","standard","2","40","LP","0.661783713916415","364.824","365.486","365.823","0.999","0.337","3","312",NA
"107","R_1nMWsb12I7KlQSV","standard","2","41","LP","2.15079707022835","366.824","368.975","369.334","2.51","0.359","3","315",NA
"108","R_1nMWsb12I7KlQSV","standard","2","42","LP","2.15079707022835","370.335","372.486","372.79","2.455","0.304","3","318",NA
"109","R_1nMWsb12I7KlQSV","standard","2","43","LP","19.8235243429556","373.791","NaN","378.839","5.048","NaN","0","318",NA
"110","R_1nMWsb12I7KlQSV","standard","2","44","LP","0.264713485566566","379.84","380.105","380.689","0.849","0.584","3","321",NA
"111","R_1nMWsb12I7KlQSV","standard","2","45","LP","1.25738905644119","381.69","382.948","383.221","1.531","0.273","3","324",NA
"112","R_1nMWsb12I7KlQSV","standard","2","46","LP","0.264713485566566","384.223","384.487","384.812","0.589","0.325","3","327",NA
"113","R_1nMWsb12I7KlQSV","standard","2","47","LP","1.25738905644119","385.812","387.07","387.466","1.654","0.396","3","330",NA
"114","R_1nMWsb12I7KlQSV","standard","2","48","LP","30","388.467","NaN","395.817","7.35","NaN","0","330",NA
"115","R_1nMWsb12I7KlQSV","standard","2","49","LP","8.51632916846187","396.818","405.335","405.66","8.842","0.325","3","333",NA
"116","R_1nMWsb12I7KlQSV","standard","2","50","LP","13.0392072382594","406.661","419.702","420.078","13.417","0.376","3","336",NA
"117","R_1nMWsb12I7KlQSV","standard","2","51","LP","30","421.078","451.079","451.398","30.32","0.319","3","339",NA
"118","R_1nMWsb12I7KlQSV","standard","2","52","LP","2.15079707022835","452.399","454.55","454.86","2.461","0.31","3","342",NA
"119","R_1nMWsb12I7KlQSV","standard","2","53","LP","1.25738905644119","455.861","457.119","457.431","1.57","0.312","3","345",NA
"120","R_1nMWsb12I7KlQSV","standard","2","54","LP","8.51632916846187","458.432","466.949","467.324","8.892","0.375","3","348",NA
"121","R_1nMWsb12I7KlQSV","standard","2","55","LP","8.51632916846187","468.324","NaN","473.792","5.468","NaN","0","348",NA
"122","R_1nMWsb12I7KlQSV","standard","2","56","LP","13.0392072382594","474.793","NaN","482.274","7.481","NaN","0","348",NA
"123","R_1nMWsb12I7KlQSV","standard","2","57","LP","13.0392072382594","483.275","496.315","496.652","13.377","0.337","3","351",NA
"124","R_1nMWsb12I7KlQSV","standard","2","58","LP","5.5010771219302","497.653","503.155","503.496","5.843","0.341","3","354",NA
"125","R_1nMWsb12I7KlQSV","standard","2","59","LP","0.661783713916415","504.497","505.158","505.555","1.058","0.397","3","357",NA
"126","R_1nMWsb12I7KlQSV","standard","2","60","LP","3.49090909090909","506.556","510.047","510.4","3.844","0.353","3","360",NA
"127","R_1nMWsb12I7KlQSV","standard","2","61","LP","30","511.401","541.403","541.743","30.342","0.34","3","363",NA
"128","R_1nMWsb12I7KlQSV","standard","2","62","LP","0.661783713916415","542.744","543.406","543.899","1.155","0.493","3","366",NA
"129","R_1nMWsb12I7KlQSV","standard","2","63","LP","3.49090909090909","544.9","548.391","548.758","3.858","0.367","3","369",NA
"130","R_1nMWsb12I7KlQSV","standard","2","64","LP","1.25738905644119","549.758","551.017","551.446","1.688","0.429","3","372",NA
"131","R_1nMWsb12I7KlQSV","standard","2","65","LP","2.15079707022835","552.446","554.598","554.933","2.487","0.335","3","375",NA
"132","R_1nMWsb12I7KlQSV","standard","2","66","LP","5.5010771219302","555.934","561.435","561.765","5.831","0.33","3","378",NA
"133","R_1nMWsb12I7KlQSV","standard","2","67","LP","3.49090909090909","562.766","566.257","566.545","3.779","0.288","3","381",NA
"134","R_1nMWsb12I7KlQSV","standard","2","68","LP","1.25738905644119","567.545","568.803","569.152","1.607","0.349","3","384",NA
"135","R_1nMWsb12I7KlQSV","standard","2","69","LP","0.661783713916415","570.153","570.815","571.125","0.972","0.31","3","387",NA
"136","R_1nMWsb12I7KlQSV","standard","2","70","LP","13.0392072382594","572.126","585.166","585.474","13.348","0.308","3","390",NA
"137","R_1nMWsb12I7KlQSV","standard","2","71","LP","8.51632916846187","586.475","NaN","593.223","6.748","NaN","0","390",NA
