"","subject_id","condition","n_block","n_trialIdx","f_timing_condition","n_scheduled_delay","n_trial_start_time","n_rewarded_time_fin","n_sell_time_fin","n_time_waited_fin","RT_fin","n_trial_earnings_fin","n_total_earnings_fin","keypress_times"
"1","R_1n75Jm5PaDrCc74","standard","1","1","LP","0.661783713916415","0.002","0.67","1.619","1.617","0.949","3","3",""
"2","R_1n75Jm5PaDrCc74","standard","1","2","LP","5.5010771219302","2.624","8.128","8.74","6.116","0.612","3","6",""
"3","R_1n75Jm5PaDrCc74","standard","1","3","LP","30","9.744","39.752","40.399","30.655","0.647","3","9",""
"4","R_1n75Jm5PaDrCc74","standard","1","4","LP","13.0392072382594","41.407","54.457","55.19","13.783","0.733","3","12",""
"5","R_1n75Jm5PaDrCc74","standard","1","5","LP","0.661783713916415","56.193","56.857","NA","1.672","NA","0","12",""
"6","R_1n75Jm5PaDrCc74","standard","1","6","LP","30","58.874","88.881","89.549","30.675","0.668","3","15",""
"7","R_1n75Jm5PaDrCc74","standard","1","7","LP","8.51632916846187","90.553","99.072","99.769","9.216","0.697","3","18",""
"8","R_1n75Jm5PaDrCc74","standard","1","8","LP","30","100.777","130.786","131.46","30.683","0.674","3","21",""
"9","R_1n75Jm5PaDrCc74","standard","1","9","LP","8.51632916846187","132.466","140.986","141.749","9.283","0.763","3","24",""
"10","R_1n75Jm5PaDrCc74","standard","1","10","LP","19.8235243429556","142.754","162.586","163.309","20.555","0.723","3","27",""
"11","R_1n75Jm5PaDrCc74","standard","1","11","LP","3.49090909090909","164.314","167.811","168.62","4.306","0.809","3","30",""
"12","R_1n75Jm5PaDrCc74","standard","1","12","LP","5.5010771219302","169.625","175.131","175.88","6.255","0.749","3","33",""
"13","R_1n75Jm5PaDrCc74","standard","1","13","LP","0.264713485566566","176.884","177.155","177.955","1.071","0.8","3","36",""
"14","R_1n75Jm5PaDrCc74","standard","1","14","LP","5.5010771219302","178.963","184.467","185.11","6.147","0.643","3","39",""
"15","R_1n75Jm5PaDrCc74","standard","1","15","LP","1.25738905644119","186.114","187.38","188.126","2.012","0.746","3","42",""
"16","R_1n75Jm5PaDrCc74","standard","1","16","LP","19.8235243429556","189.131","208.963","209.71","20.579","0.747","3","45",""
"17","R_1n75Jm5PaDrCc74","standard","1","17","LP","1.25738905644119","210.715","211.979","212.699","1.984","0.72","3","48",""
"18","R_1n75Jm5PaDrCc74","standard","1","18","LP","8.51632916846187","213.707","222.227","222.929","9.222","0.702","3","51",""
"19","R_1n75Jm5PaDrCc74","standard","1","19","LP","3.49090909090909","223.932","227.427","228.14","4.208","0.713","3","54",""
"20","R_1n75Jm5PaDrCc74","standard","1","20","LP","0.661783713916415","229.148","229.813","230.589","1.441","0.776","3","57",""
"21","R_1n75Jm5PaDrCc74","standard","1","21","LP","2.15079707022835","231.596","233.749","234.43","2.834","0.681","3","60",""
"22","R_1n75Jm5PaDrCc74","standard","1","22","LP","3.49090909090909","235.436","238.932","239.609","4.173","0.677","3","63",""
"23","R_1n75Jm5PaDrCc74","standard","1","23","LP","2.15079707022835","240.614","242.772","243.499","2.885","0.727","3","66",""
"24","R_1n75Jm5PaDrCc74","standard","1","24","LP","5.5010771219302","244.508","250.014","250.65","6.142","0.636","3","69",""
"25","R_1n75Jm5PaDrCc74","standard","1","25","LP","0.661783713916415","251.652","252.316","253.119","1.467","0.803","3","72",""
"26","R_1n75Jm5PaDrCc74","standard","1","26","LP","5.5010771219302","254.123","259.628","260.299","6.176","0.671","3","75",""
"27","R_1n75Jm5PaDrCc74","standard","1","27","LP","19.8235243429556","261.308","281.14","281.939","20.631","0.799","3","78",""
"28","R_1n75Jm5PaDrCc74","standard","1","28","LP","5.5010771219302","282.948","288.453","289.149","6.201","0.696","3","81",""
"29","R_1n75Jm5PaDrCc74","standard","1","29","LP","19.8235243429556","290.157","309.989","310.719","20.562","0.73","3","84",""
"30","R_1n75Jm5PaDrCc74","standard","1","30","LP","0.661783713916415","311.726","312.389","313.26","1.534","0.871","3","87",""
"31","R_1n75Jm5PaDrCc74","standard","1","31","LP","8.51632916846187","314.27","322.79","323.519","9.249","0.729","3","90",""
"32","R_1n75Jm5PaDrCc74","standard","1","32","LP","1.25738905644119","324.52","325.781","326.498","1.978","0.717","3","93",""
"33","R_1n75Jm5PaDrCc74","standard","1","33","LP","1.25738905644119","327.502","328.765","329.548","2.046","0.783","3","96",""
"34","R_1n75Jm5PaDrCc74","standard","1","34","LP","2.15079707022835","330.557","332.709","333.518","2.961","0.809","3","99",""
"35","R_1n75Jm5PaDrCc74","standard","1","35","LP","0.264713485566566","334.524","334.797","335.529","1.005","0.732","3","102",""
"36","R_1n75Jm5PaDrCc74","standard","1","36","LP","0.264713485566566","336.533","336.805","337.498","0.965","0.693","3","105",""
"37","R_1n75Jm5PaDrCc74","standard","1","37","LP","3.49090909090909","338.501","341.998","342.839","4.338","0.841","3","105","2487"
"38","R_1n75Jm5PaDrCc74","standard","1","38","LP","13.0392072382594","343.846","356.895","357.63","13.784","0.735","3","108",""
"39","R_1n75Jm5PaDrCc74","standard","1","39","LP","8.51632916846187","358.639","367.159","367.92","9.281","0.761","3","111",""
"40","R_1n75Jm5PaDrCc74","standard","1","40","LP","2.15079707022835","368.927","371.079","371.869","2.942","0.79","3","114",""
"41","R_1n75Jm5PaDrCc74","standard","1","41","LP","19.8235243429556","372.878","392.703","393.539","20.661","0.836","3","114","10882"
"42","R_1n75Jm5PaDrCc74","standard","1","42","LP","13.0392072382594","394.543","407.592","408.371","13.828","0.779","3","117",""
"43","R_1n75Jm5PaDrCc74","standard","1","43","LP","19.8235243429556","409.376","429.208","429.97","20.594","0.762","3","120",""
"44","R_1n75Jm5PaDrCc74","standard","1","44","LP","1.25738905644119","430.976","432.24","433.139","2.163","0.899","3","123",""
"45","R_1n75Jm5PaDrCc74","standard","1","45","LP","0.661783713916415","434.144","434.808","435.639","1.495","0.831","3","126",""
"46","R_1n75Jm5PaDrCc74","standard","1","46","LP","13.0392072382594","436.648","449.689","450.479","13.831","0.79","3","129",""
"47","R_1n75Jm5PaDrCc74","standard","1","47","LP","30","451.488","481.496","482.221","30.733","0.725","3","132",""
"48","R_1n75Jm5PaDrCc74","standard","1","48","LP","30","483.224","513.233","513.999","30.775","0.766","3","135",""
"49","R_1n75Jm5PaDrCc74","standard","1","49","LP","8.51632916846187","515.002","523.519","524.509","9.507","0.99","3","138",""
"50","R_1n75Jm5PaDrCc74","standard","1","50","LP","0.264713485566566","525.513","525.785","526.768","1.255","0.983","3","141",""
"51","R_1n75Jm5PaDrCc74","standard","1","51","LP","3.49090909090909","527.779","531.274","532.07","4.291","0.796","3","144",""
"52","R_1n75Jm5PaDrCc74","standard","1","52","LP","0.661783713916415","533.075","533.738","534.57","1.495","0.832","3","147",""
"53","R_1n75Jm5PaDrCc74","standard","1","53","LP","13.0392072382594","535.578","548.619","549.389","13.811","0.77","3","150",""
"54","R_1n75Jm5PaDrCc74","standard","1","54","LP","2.15079707022835","550.394","552.546","553.359","2.965","0.813","3","153",""
"55","R_1n75Jm5PaDrCc74","standard","1","55","LP","13.0392072382594","554.363","567.41","568.309","13.946","0.899","3","156",""
"56","R_1n75Jm5PaDrCc74","standard","1","56","LP","0.264713485566566","569.315","569.586","570.369","1.054","0.783","3","159",""
"57","R_1n75Jm5PaDrCc74","standard","1","57","LP","5.5010771219302","571.379","576.882","577.628","6.249","0.746","3","162",""
"58","R_1n75Jm5PaDrCc74","standard","1","58","LP","0.264713485566566","578.635","578.906","579.739","1.104","0.833","3","165",""
"59","R_1n75Jm5PaDrCc74","standard","1","59","LP","13.0392072382594","580.747","593.796","594.56","13.813","0.764","3","168",""
"60","R_1n75Jm5PaDrCc74","standard","1","60","LP","8.51632916846187","595.563","604.084","604.799","9.236","0.715","3","171",""
"61","R_1n75Jm5PaDrCc74","standard","1","61","LP","3.49090909090909","605.804","609.3","610.039","4.235","0.739","3","174",""
"62","R_1n75Jm5PaDrCc74","standard","1","62","LP","3.49090909090909","611.043","614.539","615.35","4.307","0.811","3","177",""
"63","R_1n75Jm5PaDrCc74","standard","1","63","LP","5.5010771219302","616.355","621.859","622.689","6.334","0.83","3","180",""
"64","R_1n75Jm5PaDrCc74","standard","1","64","LP","0.661783713916415","623.692","624.356","625.349","1.657","0.993","3","183",""
"65","R_1n75Jm5PaDrCc74","standard","1","65","LP","2.15079707022835","626.356","628.515","629.249","2.893","0.734","3","186",""
"66","R_1n75Jm5PaDrCc74","standard","1","66","LP","8.51632916846187","630.251","638.771","639.519","9.268","0.748","3","189",""
"67","R_1n75Jm5PaDrCc74","standard","1","67","LP","0.661783713916415","640.523","641.187","642.148","1.625","0.961","3","192",""
"68","R_1n75Jm5PaDrCc74","standard","1","68","LP","5.5010771219302","643.156","648.661","649.389","6.233","0.728","3","195",""
"69","R_1n75Jm5PaDrCc74","standard","1","69","LP","19.8235243429556","650.397","670.222","NA","20.828","NA","0","195",""
"70","R_1n75Jm5PaDrCc74","standard","1","70","LP","2.15079707022835","672.228","674.38","675.179","2.951","0.799","3","198",""
"71","R_1n75Jm5PaDrCc74","standard","1","71","LP","0.264713485566566","676.189","676.461","NA","1.28","NA","0","198",""
"72","R_1n75Jm5PaDrCc74","standard","1","72","LP","8.51632916846187","678.477","686.996","687.739","9.262","0.743","3","201",""
"73","R_1n75Jm5PaDrCc74","standard","1","73","LP","0.264713485566566","688.749","689.021","689.819","1.07","0.798","3","204",""
"74","R_1n75Jm5PaDrCc74","standard","1","74","LP","2.15079707022835","690.821","692.981","693.743","2.922","0.762","3","207",""
"75","R_1n75Jm5PaDrCc74","standard","1","75","LP","2.15079707022835","694.749","696.909","697.649","2.9","0.74","3","210",""
"76","R_1n75Jm5PaDrCc74","standard","1","76","LP","8.51632916846187","698.653","707.173","707.899","9.246","0.726","3","213",""
"77","R_1n75Jm5PaDrCc74","standard","1","77","LP","0.264713485566566","708.902","709.174","710.169","1.267","0.995","3","216",""
"78","R_1n75Jm5PaDrCc74","standard","1","78","LP","0.264713485566566","711.173","711.445","712.269","1.096","0.824","3","219",""
"79","R_1n75Jm5PaDrCc74","standard","1","79","LP","3.49090909090909","713.278","716.774","717.469","4.191","0.695","3","222",""
"80","R_1n75Jm5PaDrCc74","standard","1","80","LP","19.8235243429556","718.478","738.31","739.079","20.601","0.769","3","222","6822"
"81","R_1n75Jm5PaDrCc74","standard","1","81","LP","13.0392072382594","740.086","753.129","754.059","13.973","0.93","3","225",""
"82","R_1n75Jm5PaDrCc74","standard","1","82","LP","3.49090909090909","755.062","758.557","759.338","4.276","0.781","3","228",""
"83","R_1n75Jm5PaDrCc74","standard","1","83","LP","2.15079707022835","760.342","762.502","763.268","2.926","0.766","3","231",""
"84","R_1n75Jm5PaDrCc74","standard","1","84","LP","2.15079707022835","764.278","766.429","767.189","2.911","0.76","3","234",""
"85","R_1n75Jm5PaDrCc74","standard","1","85","LP","8.51632916846187","768.198","776.718","777.459","9.261","0.741","3","237",""
"86","R_1n75Jm5PaDrCc74","standard","1","86","LP","19.8235243429556","778.462","798.294","799.008","20.546","0.714","3","240",""
"87","R_1n75Jm5PaDrCc74","standard","1","87","LP","2.15079707022835","800.015","802.174","802.939","2.924","0.765","3","243",""
"88","R_1n75Jm5PaDrCc74","standard","1","88","LP","8.51632916846187","803.942","812.462","813.148","9.206","0.686","3","246",""
"89","R_1n75Jm5PaDrCc74","standard","1","89","LP","1.25738905644119","814.151","815.414","816.238","2.087","0.824","3","249",""
"90","R_1n75Jm5PaDrCc74","standard","1","90","LP","19.8235243429556","817.247","837.08","837.84","20.593","0.76","3","252",""
"91","R_1n75Jm5PaDrCc74","standard","1","91","LP","0.264713485566566","838.849","839.12","839.879","1.03","0.759","3","255",""
"92","R_1n75Jm5PaDrCc74","standard","1","92","LP","13.0392072382594","840.889","853.936","854.61","13.721","0.674","3","258",""
"93","R_1n75Jm5PaDrCc74","standard","1","93","LP","13.0392072382594","855.616","868.665","869.489","13.873","0.824","3","261",""
"94","R_1n75Jm5PaDrCc74","standard","1","94","LP","8.51632916846187","870.496","879.016","879.859","9.363","0.843","3","264",""
"95","R_1n75Jm5PaDrCc74","standard","1","95","LP","2.15079707022835","880.864","883.016","883.828","2.964","0.812","3","267",""
"96","R_1n75Jm5PaDrCc74","standard","1","96","LP","5.5010771219302","884.832","890.337","891.1","6.268","0.763","3","270",""
"97","R_1n75Jm5PaDrCc74","standard","1","97","LP","5.5010771219302","892.105","897.61","898.469","6.364","0.859","3","273",""
"98","R_1n75Jm5PaDrCc74","standard","2","1","LP","13.0392072382594","0.001","13.046","13.759","13.758","0.713","3","276",NA
"99","R_1n75Jm5PaDrCc74","standard","2","2","LP","1.25738905644119","14.765","16.029","16.788","2.023","0.759","3","279",NA
"100","R_1n75Jm5PaDrCc74","standard","2","3","LP","0.661783713916415","17.797","18.461","19.248","1.451","0.787","3","282",NA
"101","R_1n75Jm5PaDrCc74","standard","2","4","LP","13.0392072382594","20.252","33.301","34.028","13.776","0.727","3","285",NA
"102","R_1n75Jm5PaDrCc74","standard","2","5","LP","2.15079707022835","35.037","37.189","37.918","2.881","0.729","3","288",NA
"103","R_1n75Jm5PaDrCc74","standard","2","6","LP","0.264713485566566","38.925","39.197","40.048","1.123","0.851","3","291",NA
"104","R_1n75Jm5PaDrCc74","standard","2","7","LP","30","41.053","71.063","71.79","30.737","0.727","3","294",NA
"105","R_1n75Jm5PaDrCc74","standard","2","8","LP","0.661783713916415","72.799","73.462","74.309","1.51","0.847","3","297",NA
"106","R_1n75Jm5PaDrCc74","standard","2","9","LP","8.51632916846187","75.311","83.83","84.799","9.488","0.969","3","300",NA
"107","R_1n75Jm5PaDrCc74","standard","2","10","LP","30","85.806","115.807","116.548","30.742","0.741","3","303",NA
"108","R_1n75Jm5PaDrCc74","standard","2","11","LP","5.5010771219302","117.55","123.056","123.829","6.279","0.773","3","306",NA
"109","R_1n75Jm5PaDrCc74","standard","2","12","LP","2.15079707022835","124.831","126.983","127.858","3.027","0.875","3","309",NA
"110","R_1n75Jm5PaDrCc74","standard","2","13","LP","13.0392072382594","128.863","141.911","142.698","13.835","0.787","3","312",NA
"111","R_1n75Jm5PaDrCc74","standard","2","14","LP","8.51632916846187","143.703","152.224","153","9.297","0.776","3","315",NA
"112","R_1n75Jm5PaDrCc74","standard","2","15","LP","8.51632916846187","154.008","162.527","163.358","9.35","0.831","3","318",NA
"113","R_1n75Jm5PaDrCc74","standard","2","16","LP","2.15079707022835","164.367","166.519","167.378","3.011","0.859","3","321",NA
"114","R_1n75Jm5PaDrCc74","standard","2","17","LP","8.51632916846187","168.383","176.903","177.658","9.275","0.755","3","324",NA
"115","R_1n75Jm5PaDrCc74","standard","2","18","LP","1.25738905644119","178.663","179.927","180.707","2.044","0.78","3","327",NA
"116","R_1n75Jm5PaDrCc74","standard","2","19","LP","8.51632916846187","181.713","190.232",NA,"9.528",NA,"0","327",NA
"117","R_1n75Jm5PaDrCc74","standard","2","20","LP","19.8235243429556","192.248","212.08","212.838","20.59","0.758","3","330",NA
"118","R_1n75Jm5PaDrCc74","standard","2","21","LP","3.49090909090909","213.841","217.337","218.118","4.277","0.781","3","333",NA
"119","R_1n75Jm5PaDrCc74","standard","2","22","LP","8.51632916846187","219.12","227.641","228.338","9.218","0.697","3","336",NA
"120","R_1n75Jm5PaDrCc74","standard","2","23","LP","1.25738905644119","229.344","230.609",NA,"2.266",NA,"0","336",NA
"121","R_1n75Jm5PaDrCc74","standard","2","24","LP","0.264713485566566","232.61","232.88",NA,"1.279",NA,"0","336",NA
"122","R_1n75Jm5PaDrCc74","standard","2","25","LP","3.49090909090909","234.897","238.393","239.098","4.201","0.705","3","339",NA
"123","R_1n75Jm5PaDrCc74","standard","2","26","LP","5.5010771219302","240.104","245.61","246.319","6.215","0.709","3","342",NA
"124","R_1n75Jm5PaDrCc74","standard","2","27","LP","19.8235243429556","247.327","267.154","267.96","20.633","0.806","3","345",NA
"125","R_1n75Jm5PaDrCc74","standard","2","28","LP","5.5010771219302","268.961","274.466","275.258","6.297","0.792","3","348",NA
"126","R_1n75Jm5PaDrCc74","standard","2","29","LP","30","276.266","306.276","307.076","30.81","0.8","3","351",NA
"127","R_1n75Jm5PaDrCc74","standard","2","30","LP","5.5010771219302","308.083","313.587","314.489","6.406","0.902","3","354",NA
"128","R_1n75Jm5PaDrCc74","standard","2","31","LP","0.264713485566566","315.49","315.764","316.679","1.189","0.915","3","357",NA
"129","R_1n75Jm5PaDrCc74","standard","2","32","LP","1.25738905644119","317.684","318.947","319.679","1.995","0.732","3","360",NA
"130","R_1n75Jm5PaDrCc74","standard","2","33","LP","30","320.684","350.691","351.419","30.735","0.728","3","363",NA
"131","R_1n75Jm5PaDrCc74","standard","2","34","LP","13.0392072382594","352.419","365.469","366.299","13.88","0.83","3","366",NA
"132","R_1n75Jm5PaDrCc74","standard","2","35","LP","0.661783713916415","367.309","367.972","368.788","1.479","0.816","3","369",NA
"133","R_1n75Jm5PaDrCc74","standard","2","36","LP","0.264713485566566","369.796","370.068","370.85","1.054","0.782","3","372",NA
"134","R_1n75Jm5PaDrCc74","standard","2","37","LP","13.0392072382594","371.852","384.9","385.669","13.817","0.769","3","375",NA
"135","R_1n75Jm5PaDrCc74","standard","2","38","LP","5.5010771219302","386.676","392.18","392.938","6.262","0.758","3","378",NA
"136","R_1n75Jm5PaDrCc74","standard","2","39","LP","13.0392072382594","393.94","406.988","407.966","14.026","0.978","3","381",NA
"137","R_1n75Jm5PaDrCc74","standard","2","40","LP","1.25738905644119","408.972","410.236","411.087","2.115","0.851","3","384",NA
"138","R_1n75Jm5PaDrCc74","standard","2","41","LP","1.25738905644119","412.092","413.356","414.159","2.067","0.803","3","387",NA
"139","R_1n75Jm5PaDrCc74","standard","2","42","LP","3.49090909090909","415.164","418.66","419.448","4.284","0.788","3","390",NA
"140","R_1n75Jm5PaDrCc74","standard","2","43","LP","30","420.452","450.462","451.169","30.717","0.707","3","393",NA
"141","R_1n75Jm5PaDrCc74","standard","2","44","LP","13.0392072382594","452.173","465.214","466.139","13.966","0.925","3","396",NA
"142","R_1n75Jm5PaDrCc74","standard","2","45","LP","1.25738905644119","467.142","468.406","469.199","2.057","0.793","3","399",NA
"143","R_1n75Jm5PaDrCc74","standard","2","46","LP","2.15079707022835","470.206","472.358","473.208","3.002","0.85","3","402",NA
"144","R_1n75Jm5PaDrCc74","standard","2","47","LP","5.5010771219302","474.214","479.719","480.478","6.264","0.759","3","405",NA
"145","R_1n75Jm5PaDrCc74","standard","2","48","LP","1.25738905644119","481.486","482.752","483.5","2.014","0.748","3","408",NA
"146","R_1n75Jm5PaDrCc74","standard","2","49","LP","2.15079707022835","484.504","486.663","487.369","2.865","0.706","3","411",NA
"147","R_1n75Jm5PaDrCc74","standard","2","50","LP","2.15079707022835","488.375","490.527","491.299","2.924","0.772","3","414",NA
"148","R_1n75Jm5PaDrCc74","standard","2","51","LP","0.264713485566566","492.304","492.576","493.521","1.217","0.945","3","417",NA
"149","R_1n75Jm5PaDrCc74","standard","2","52","LP","2.15079707022835","494.527","496.679","497.429","2.902","0.75","3","420",NA
"150","R_1n75Jm5PaDrCc74","standard","2","53","LP","19.8235243429556","498.432","518.263","519.039","20.607","0.776","3","423",NA
"151","R_1n75Jm5PaDrCc74","standard","2","54","LP","30","520.048","550.057","550.82","30.772","0.763","3","426",NA
"152","R_1n75Jm5PaDrCc74","standard","2","55","LP","0.661783713916415","551.823","552.489","553.309","1.486","0.82","3","429",NA
"153","R_1n75Jm5PaDrCc74","standard","2","56","LP","19.8235243429556","554.312","574.145","574.979","20.667","0.834","3","432",NA
"154","R_1n75Jm5PaDrCc74","standard","2","57","LP","30","575.984","NaN","596.189","20.205","NaN","0","432",NA
