"","subject_id","condition","n_block","n_trialIdx","f_timing_condition","n_scheduled_delay","n_trial_start_time","n_rewarded_time_fin","n_sell_time_fin","n_time_waited_fin","RT_fin","n_trial_earnings_fin","n_total_earnings_fin","keypress_times"
"1","R_1nTLL6t2FEgJfL7","standard","1","1","HP","2","0.002","2.003","2.777","2.775","0.774","3","3",""
"2","R_1nTLL6t2FEgJfL7","standard","1","2","HP","8","3.801","11.812","12.627","8.826","0.815","3","6",""
"3","R_1nTLL6t2FEgJfL7","standard","1","3","HP","6","13.635","19.642","20.431","6.796","0.789","3","9",""
"4","R_1nTLL6t2FEgJfL7","standard","1","4","HP","12","21.433","33.435","34.182","12.749","0.747","3","12",""
"5","R_1nTLL6t2FEgJfL7","standard","1","5","HP","10","35.199","45.213","45.965","10.766","0.752","3","15",""
"6","R_1nTLL6t2FEgJfL7","standard","1","6","HP","4","46.979","50.998","51.825","4.846","0.827","3","18",""
"7","R_1nTLL6t2FEgJfL7","standard","1","7","HP","20","52.827","72.846","73.766","20.939","0.92","3","21",""
"8","R_1nTLL6t2FEgJfL7","standard","1","8","HP","10","74.779","84.792","85.574","10.795","0.782","3","24",""
"9","R_1nTLL6t2FEgJfL7","standard","1","9","HP","10","86.58","96.592","97.347","10.767","0.755","3","27",""
"10","R_1nTLL6t2FEgJfL7","standard","1","10","HP","10","98.363","108.379","109.321","10.958","0.942","3","30",""
"11","R_1nTLL6t2FEgJfL7","standard","1","11","HP","8","110.323","118.328","119.054","8.731","0.726","3","33",""
"12","R_1nTLL6t2FEgJfL7","standard","1","12","HP","16","120.059","136.076","136.894","16.835","0.818","3","36",""
"13","R_1nTLL6t2FEgJfL7","standard","1","13","HP","20","137.907","157.914","158.692","20.785","0.778","3","39",""
"14","R_1nTLL6t2FEgJfL7","standard","1","14","HP","12","159.707","171.709","172.387","12.68","0.678","3","42",""
"15","R_1nTLL6t2FEgJfL7","standard","1","15","HP","18","173.394","191.403","192.139","18.745","0.736","3","45",""
"16","R_1nTLL6t2FEgJfL7","standard","1","16","HP","18","193.14","211.142","211.961","18.821","0.819","3","48",""
"17","R_1nTLL6t2FEgJfL7","standard","1","17","HP","6","212.969","218.991","219.729","6.76","0.738","3","51",""
"18","R_1nTLL6t2FEgJfL7","standard","1","18","HP","2","220.732","222.74","223.47","2.738","0.73","3","54",""
"19","R_1nTLL6t2FEgJfL7","standard","1","19","HP","20","224.485","244.492","245.327","20.842","0.835","3","57",""
"20","R_1nTLL6t2FEgJfL7","standard","1","20","HP","4","246.331","250.339","251.163","4.832","0.824","3","60",""
"21","R_1nTLL6t2FEgJfL7","standard","1","21","HP","12","252.17","264.189","265.101","12.931","0.912","3","63",""
"22","R_1nTLL6t2FEgJfL7","standard","1","22","HP","4","266.106","270.121","270.856","4.75","0.735","3","66",""
"23","R_1nTLL6t2FEgJfL7","standard","1","23","HP","20","271.871","291.902","292.687","20.816","0.785","3","69",""
"24","R_1nTLL6t2FEgJfL7","standard","1","24","HP","12","293.7","305.717","306.449","12.749","0.732","3","72",""
"25","R_1nTLL6t2FEgJfL7","standard","1","25","HP","6","307.451","313.47","314.166","6.715","0.696","3","75",""
"26","R_1nTLL6t2FEgJfL7","standard","1","26","HP","2","315.171","317.187","317.961","2.79","0.774","3","78",""
"27","R_1nTLL6t2FEgJfL7","standard","1","27","HP","20","318.963","338.97","339.714","20.751","0.744","3","81",""
"28","R_1nTLL6t2FEgJfL7","standard","1","28","HP","12","340.715","352.719","353.499","12.784","0.78","3","84",""
"29","R_1nTLL6t2FEgJfL7","standard","1","29","HP","4","354.517","358.52","359.261","4.744","0.741","3","87",""
"30","R_1nTLL6t2FEgJfL7","standard","1","30","HP","16","360.267","376.275","377.083","16.816","0.808","3","90",""
"31","R_1nTLL6t2FEgJfL7","standard","1","31","HP","2","378.085","380.1","380.834","2.749","0.734","3","93",""
"32","R_1nTLL6t2FEgJfL7","standard","1","32","HP","10","381.835","391.836","392.609","10.774","0.773","3","96",""
"33","R_1nTLL6t2FEgJfL7","standard","1","33","HP","4","393.612","397.618","398.386","4.774","0.768","3","99",""
"34","R_1nTLL6t2FEgJfL7","standard","1","34","HP","10","399.388","409.395","410.084","10.696","0.689","3","102",""
"35","R_1nTLL6t2FEgJfL7","standard","1","35","HP","18","411.095","429.114","429.816","18.721","0.702","3","105",""
"36","R_1nTLL6t2FEgJfL7","standard","1","36","HP","20","430.817","450.82","451.612","20.795","0.792","3","108",""
"37","R_1nTLL6t2FEgJfL7","standard","1","37","HP","12","452.613","464.613","465.401","12.788","0.788","3","111",""
"38","R_1nTLL6t2FEgJfL7","standard","1","38","HP","18","466.422","484.427","485.133","18.711","0.706","3","114",""
"39","R_1nTLL6t2FEgJfL7","standard","1","39","HP","10","486.14","496.147","496.892","10.752","0.745","3","117",""
"40","R_1nTLL6t2FEgJfL7","standard","1","40","HP","4","497.91","501.913","502.735","4.825","0.822","3","120",""
"41","R_1nTLL6t2FEgJfL7","standard","1","41","HP","6","503.735","509.74","510.541","6.806","0.801","3","123",""
"42","R_1nTLL6t2FEgJfL7","standard","1","42","HP","4","511.547","515.554","516.327","4.78","0.773","3","126",""
"43","R_1nTLL6t2FEgJfL7","standard","1","43","HP","18","517.33","535.331","NA","19.01","NA","0","126",""
"44","R_1nTLL6t2FEgJfL7","standard","1","44","HP","6","537.361","543.379","544.148","6.787","0.769","3","126","100"
"45","R_1nTLL6t2FEgJfL7","standard","1","45","HP","2","545.154","547.155","548.02","2.866","0.865","3","129",""
"46","R_1nTLL6t2FEgJfL7","standard","1","46","HP","14","549.031","563.036","563.927","14.896","0.891","3","132",""
"47","R_1nTLL6t2FEgJfL7","standard","1","47","HP","4","564.931","568.932","569.779","4.848","0.847","3","135",""
"48","R_1nTLL6t2FEgJfL7","standard","1","48","HP","16","570.793","586.808","587.654","16.861","0.846","3","138",""
"49","R_1nTLL6t2FEgJfL7","standard","1","49","HP","16","588.659","604.675","605.419","16.76","0.744","3","141",""
"50","R_1nTLL6t2FEgJfL7","standard","1","50","HP","6","606.419","612.419","613.165","6.746","0.746","3","144",""
"51","R_1nTLL6t2FEgJfL7","standard","1","51","HP","14","614.171","628.19","628.991","14.82","0.801","3","147",""
"52","R_1nTLL6t2FEgJfL7","standard","1","52","HP","2","630.005","632.008","632.766","2.761","0.758","3","150",""
"53","R_1nTLL6t2FEgJfL7","standard","1","53","HP","6","633.771","639.791","640.621","6.85","0.83","3","153",""
"54","R_1nTLL6t2FEgJfL7","standard","1","54","HP","16","641.625","657.627","NA","17.01","NA","0","153",""
"55","R_1nTLL6t2FEgJfL7","standard","1","55","HP","14","659.642","673.643","674.539","14.897","0.896","3","156",""
"56","R_1nTLL6t2FEgJfL7","standard","1","56","HP","14","675.542","689.547","690.296","14.754","0.749","3","159",""
"57","R_1nTLL6t2FEgJfL7","standard","1","57","HP","4","691.312","695.315","696.057","4.745","0.742","3","162",""
"58","R_1nTLL6t2FEgJfL7","standard","1","58","HP","20","697.071","717.086","NA","21.033","NA","0","162",""
"59","R_1nTLL6t2FEgJfL7","standard","1","59","HP","8","719.129","727.164","727.926","8.797","0.762","3","165",""
"60","R_1nTLL6t2FEgJfL7","standard","1","60","HP","4","728.931","732.939","733.684","4.753","0.745","3","168",""
"61","R_1nTLL6t2FEgJfL7","standard","1","61","HP","2","734.701","736.72","737.587","2.886","0.867","3","171",""
"62","R_1nTLL6t2FEgJfL7","standard","1","62","HP","6","738.602","744.605","745.333","6.731","0.728","3","174",""
"63","R_1nTLL6t2FEgJfL7","standard","1","63","HP","8","746.338","754.347","755.047","8.709","0.7","3","177",""
"64","R_1nTLL6t2FEgJfL7","standard","1","64","HP","10","756.051","766.059","766.896","10.845","0.837","3","180",""
"65","R_1nTLL6t2FEgJfL7","standard","1","65","HP","20","767.907","787.918","788.699","20.792","0.781","3","183",""
"66","R_1nTLL6t2FEgJfL7","standard","1","66","HP","4","789.718","793.721","794.459","4.741","0.738","3","186",""
"67","R_1nTLL6t2FEgJfL7","standard","1","67","HP","12","795.467","807.475","808.228","12.761","0.753","3","189",""
"68","R_1nTLL6t2FEgJfL7","standard","1","68","HP","2","809.257","811.259","811.998","2.741","0.739","3","192",""
"69","R_1nTLL6t2FEgJfL7","standard","1","69","HP","2","813.016","815.018","815.732","2.716","0.714","3","195",""
"70","R_1nTLL6t2FEgJfL7","standard","1","70","HP","20","816.739","836.747","837.486","20.747","0.739","3","198",""
"71","R_1nTLL6t2FEgJfL7","standard","1","71","HP","10","838.513","848.516","849.347","10.834","0.831","3","201",""
"72","R_1nTLL6t2FEgJfL7","standard","1","72","HP","4","850.365","854.38","855.117","4.752","0.737","3","204",""
"73","R_1nTLL6t2FEgJfL7","standard","1","73","HP","12","856.117","868.123","868.917","12.8","0.794","3","207",""
"74","R_1nTLL6t2FEgJfL7","standard","1","74","HP","18","869.923","887.93","888.612","18.689","0.682","3","210",""
"75","R_1nTLL6t2FEgJfL7","standard","2","1","LP","0.661783713916415","0","0.664","1.521","1.521","0.857","3","213",NA
"76","R_1nTLL6t2FEgJfL7","standard","2","2","LP","5.5010771219302","2.523","8.028","8.694","6.171","0.666","3","216",NA
"77","R_1nTLL6t2FEgJfL7","standard","2","3","LP","30","9.71","39.722","40.455","30.745","0.733","3","219",NA
"78","R_1nTLL6t2FEgJfL7","standard","2","4","LP","30","41.46","71.476","72.205","30.745","0.729","3","222",NA
"79","R_1nTLL6t2FEgJfL7","standard","2","5","LP","0.264713485566566","73.212","73.483","74.21","0.998","0.727","3","225",NA
"80","R_1nTLL6t2FEgJfL7","standard","2","6","LP","19.8235243429556","75.211","95.035","95.747","20.536","0.712","3","228",NA
"81","R_1nTLL6t2FEgJfL7","standard","2","7","LP","19.8235243429556","96.754","116.589","117.389","20.635","0.8","3","231",NA
"82","R_1nTLL6t2FEgJfL7","standard","2","8","LP","0.661783713916415","118.409","119.076","119.772","1.363","0.696","3","234",NA
"83","R_1nTLL6t2FEgJfL7","standard","2","9","LP","30","120.78","150.787","151.434","30.654","0.647","3","237",NA
"84","R_1nTLL6t2FEgJfL7","standard","2","10","LP","1.25738905644119","152.435","153.703","154.42","1.985","0.717","3","240",NA
"85","R_1nTLL6t2FEgJfL7","standard","2","11","LP","2.15079707022835","155.428","157.579","158.337","2.909","0.758","3","243",NA
"86","R_1nTLL6t2FEgJfL7","standard","2","12","LP","3.49090909090909","159.34","162.836","163.551","4.211","0.715","3","246",NA
"87","R_1nTLL6t2FEgJfL7","standard","2","13","LP","0.661783713916415","164.556","165.22","165.898","1.342","0.678","3","249",NA
"88","R_1nTLL6t2FEgJfL7","standard","2","14","LP","13.0392072382594","166.899","179.948","180.733","13.834","0.785","3","252",NA
"89","R_1nTLL6t2FEgJfL7","standard","2","15","LP","13.0392072382594","181.738","194.788","195.501","13.763","0.713","3","255",NA
"90","R_1nTLL6t2FEgJfL7","standard","2","16","LP","30","196.527","226.531","227.236","30.709","0.705","3","258",NA
"91","R_1nTLL6t2FEgJfL7","standard","2","17","LP","8.51632916846187","228.244","236.764","237.523","9.279","0.759","3","261",NA
"92","R_1nTLL6t2FEgJfL7","standard","2","18","LP","0.661783713916415","238.523","239.199","239.98","1.457","0.781","3","264",NA
"93","R_1nTLL6t2FEgJfL7","standard","2","19","LP","0.264713485566566","241.002","241.283","241.968","0.966","0.685","3","267",NA
"94","R_1nTLL6t2FEgJfL7","standard","2","20","LP","30","242.986","272.987","273.717","30.731","0.73","3","270",NA
"95","R_1nTLL6t2FEgJfL7","standard","2","21","LP","3.49090909090909","274.77","278.267","278.969","4.199","0.702","3","273",NA
"96","R_1nTLL6t2FEgJfL7","standard","2","22","LP","2.15079707022835","279.983","282.14","282.835","2.852","0.695","3","276",NA
"97","R_1nTLL6t2FEgJfL7","standard","2","23","LP","2.15079707022835","283.844","285.999","286.676","2.832","0.677","3","279",NA
"98","R_1nTLL6t2FEgJfL7","standard","2","24","LP","0.661783713916415","287.683","288.348","289.051","1.368","0.703","3","282",NA
"99","R_1nTLL6t2FEgJfL7","standard","2","25","LP","30","290.051","320.057","320.666","30.615","0.609","3","285",NA
"100","R_1nTLL6t2FEgJfL7","standard","2","26","LP","13.0392072382594","321.683","334.723","335.465","13.782","0.742","3","288",NA
"101","R_1nTLL6t2FEgJfL7","standard","2","27","LP","0.264713485566566","336.469","336.74","337.457","0.988","0.717","3","291",NA
"102","R_1nTLL6t2FEgJfL7","standard","2","28","LP","5.5010771219302","338.471","343.98","344.728","6.257","0.748","3","294",NA
"103","R_1nTLL6t2FEgJfL7","standard","2","29","LP","8.51632916846187","345.731","354.398","355.162","9.431","0.764","3","297",NA
"104","R_1nTLL6t2FEgJfL7","standard","2","30","LP","5.5010771219302","356.164","361.667","362.411","6.247","0.744","3","300",NA
"105","R_1nTLL6t2FEgJfL7","standard","2","31","LP","2.15079707022835","363.412","365.564","366.258","2.846","0.694","3","303",NA
"106","R_1nTLL6t2FEgJfL7","standard","2","32","LP","0.661783713916415","367.26","367.924","368.606","1.346","0.682","3","306",NA
"107","R_1nTLL6t2FEgJfL7","standard","2","33","LP","3.49090909090909","369.611","373.113","373.837","4.226","0.724","3","309",NA
"108","R_1nTLL6t2FEgJfL7","standard","2","34","LP","8.51632916846187","374.843","383.378","384.104","9.261","0.726","3","312",NA
"109","R_1nTLL6t2FEgJfL7","standard","2","35","LP","8.51632916846187","385.11","393.637","394.368","9.258","0.731","3","315",NA
"110","R_1nTLL6t2FEgJfL7","standard","2","36","LP","0.661783713916415","395.371","396.036","396.816","1.445","0.78","3","318",NA
"111","R_1nTLL6t2FEgJfL7","standard","2","37","LP","19.8235243429556","397.82","417.692","418.414","20.594","0.722","3","321",NA
"112","R_1nTLL6t2FEgJfL7","standard","2","38","LP","3.49090909090909","419.42","422.911","423.651","4.231","0.74","3","324",NA
"113","R_1nTLL6t2FEgJfL7","standard","2","39","LP","30","424.661","NaN","445.433","20.772","NaN","0","324",NA
"114","R_1nTLL6t2FEgJfL7","standard","2","40","LP","1.25738905644119","446.435","447.713","448.438","2.003","0.725","3","327",NA
"115","R_1nTLL6t2FEgJfL7","standard","2","41","LP","2.15079707022835","449.444","451.61","452.473","3.029","0.863","3","330",NA
"116","R_1nTLL6t2FEgJfL7","standard","2","42","LP","19.8235243429556","453.476","473.3","474.064","20.588","0.764","3","333",NA
"117","R_1nTLL6t2FEgJfL7","standard","2","43","LP","8.51632916846187","475.075","483.608","484.366","9.291","0.758","3","336",NA
"118","R_1nTLL6t2FEgJfL7","standard","2","44","LP","5.5010771219302","485.372","490.889","491.722","6.35","0.833","3","339",NA
"119","R_1nTLL6t2FEgJfL7","standard","2","45","LP","19.8235243429556","492.722","512.547","513.297","20.575","0.75","3","342",NA
"120","R_1nTLL6t2FEgJfL7","standard","2","46","LP","8.51632916846187","514.299","522.82","523.582","9.283","0.762","3","345",NA
"121","R_1nTLL6t2FEgJfL7","standard","2","47","LP","19.8235243429556","524.59","544.419","545.205","20.615","0.786","3","348",NA
"122","R_1nTLL6t2FEgJfL7","standard","2","48","LP","8.51632916846187","546.208","554.731","555.457","9.249","0.726","3","351",NA
"123","R_1nTLL6t2FEgJfL7","standard","2","49","LP","0.661783713916415","556.473","557.15","557.877","1.404","0.727","3","354",NA
"124","R_1nTLL6t2FEgJfL7","standard","2","50","LP","0.264713485566566","558.888","559.155","559.842","0.954","0.687","3","357",NA
"125","R_1nTLL6t2FEgJfL7","standard","2","51","LP","2.15079707022835","560.843","563.004","563.727","2.884","0.723","3","360",NA
"126","R_1nTLL6t2FEgJfL7","standard","2","52","LP","0.661783713916415","564.731","565.404","566.047","1.316","0.643","3","363",NA
"127","R_1nTLL6t2FEgJfL7","standard","2","53","LP","30","567.051","597.071","597.623","30.572","0.552","3","366",NA
