"","subject_id","condition","n_block","n_trialIdx","f_timing_condition","n_scheduled_delay","n_trial_start_time","n_rewarded_time_fin","n_sell_time_fin","n_time_waited_fin","RT_fin","n_trial_earnings_fin","n_total_earnings_fin","keypress_times"
"1","R_1P6I86geBEG9KZ4","standard","1","1","HP","2","0.001","2.003","2.416","2.415","0.413","3","3",""
"2","R_1P6I86geBEG9KZ4","standard","1","2","HP","6","3.421","9.427","9.707","6.286","0.28","3","6",""
"3","R_1P6I86geBEG9KZ4","standard","1","3","HP","14","10.708","24.72","25.051","14.343","0.331","3","9",""
"4","R_1P6I86geBEG9KZ4","standard","1","4","HP","2","26.061","28.077","28.417","2.356","0.34","3","12",""
"5","R_1P6I86geBEG9KZ4","standard","1","5","HP","8","29.419","37.427","37.766","8.347","0.339","3","15",""
"6","R_1P6I86geBEG9KZ4","standard","1","6","HP","14","38.771","52.779","53.133","14.362","0.354","3","18",""
"7","R_1P6I86geBEG9KZ4","standard","1","7","HP","2","54.14","56.147","56.488","2.348","0.341","3","21",""
"8","R_1P6I86geBEG9KZ4","standard","1","8","HP","14","57.491","71.499","71.908","14.417","0.409","3","24",""
"9","R_1P6I86geBEG9KZ4","standard","1","9","HP","18","73.076","91.092","91.418","18.342","0.326","3","27",""
"10","R_1P6I86geBEG9KZ4","standard","1","10","HP","6","92.687","98.694","99.128","6.441","0.434","3","30",""
"11","R_1P6I86geBEG9KZ4","standard","1","11","HP","14","100.136","114.144","114.462","14.326","0.318","3","33",""
"12","R_1P6I86geBEG9KZ4","standard","1","12","HP","20","115.479","135.483","135.769","20.29","0.286","3","36",""
"13","R_1P6I86geBEG9KZ4","standard","1","13","HP","12","136.771","148.779","149.105","12.334","0.326","3","39",""
"14","R_1P6I86geBEG9KZ4","standard","1","14","HP","6","150.12","156.122","156.561","6.441","0.439","3","42",""
"15","R_1P6I86geBEG9KZ4","standard","1","15","HP","16","157.705","173.716","174.022","16.317","0.306","3","45",""
"16","R_1P6I86geBEG9KZ4","standard","1","16","HP","18","175.027","193.045","193.323","18.296","0.278","3","48",""
"17","R_1P6I86geBEG9KZ4","standard","1","17","HP","4","194.331","198.339","198.614","4.283","0.275","3","51",""
"18","R_1P6I86geBEG9KZ4","standard","1","18","HP","16","199.616","215.617","216.194","16.578","0.577","3","54",""
"19","R_1P6I86geBEG9KZ4","standard","1","19","HP","4","217.199","221.203","221.54","4.341","0.337","3","57",""
"20","R_1P6I86geBEG9KZ4","standard","1","20","HP","4","222.551","226.555","226.877","4.326","0.322","3","60",""
"21","R_1P6I86geBEG9KZ4","standard","1","21","HP","12","227.888","239.891","240.247","12.359","0.356","3","63",""
"22","R_1P6I86geBEG9KZ4","standard","1","22","HP","2","241.251","243.259","243.76","2.509","0.501","3","66",""
"23","R_1P6I86geBEG9KZ4","standard","1","23","HP","4","244.766","248.784","249.127","4.361","0.343","3","69",""
"24","R_1P6I86geBEG9KZ4","standard","1","24","HP","16","250.134","266.143","266.405","16.271","0.262","3","72",""
"25","R_1P6I86geBEG9KZ4","standard","1","25","HP","20","267.415","287.427","287.682","20.267","0.255","3","75",""
"26","R_1P6I86geBEG9KZ4","standard","1","26","HP","2","288.683","290.691","291.041","2.358","0.35","3","78",""
"27","R_1P6I86geBEG9KZ4","standard","1","27","HP","10","292.043","302.056","302.36","10.317","0.304","3","81",""
"28","R_1P6I86geBEG9KZ4","standard","1","28","HP","16","303.375","319.379","319.657","16.282","0.278","3","84",""
"29","R_1P6I86geBEG9KZ4","standard","1","29","HP","6","320.672","326.675","327.172","6.5","0.497","3","87",""
"30","R_1P6I86geBEG9KZ4","standard","1","30","HP","18","328.18","346.187","346.751","18.571","0.564","3","90",""
"31","R_1P6I86geBEG9KZ4","standard","1","31","HP","10","347.758","357.763","358.15","10.392","0.387","3","93",""
"32","R_1P6I86geBEG9KZ4","standard","1","32","HP","10","359.16","369.163","369.462","10.302","0.299","3","96",""
"33","R_1P6I86geBEG9KZ4","standard","1","33","HP","20","370.467","390.475","390.785","20.318","0.31","3","99",""
"34","R_1P6I86geBEG9KZ4","standard","1","34","HP","10","391.787","401.806","NA","11.025","NA","0","99",""
"35","R_1P6I86geBEG9KZ4","standard","1","35","HP","18","403.819","421.827","422.104","18.285","0.277","3","102",""
"36","R_1P6I86geBEG9KZ4","standard","1","36","HP","12","423.122","435.128","435.703","12.581","0.575","3","105",""
"37","R_1P6I86geBEG9KZ4","standard","1","37","HP","4","436.711","440.713","441.149","4.438","0.436","3","108",""
"38","R_1P6I86geBEG9KZ4","standard","1","38","HP","18","442.155","460.167","460.493","18.338","0.326","3","111",""
"39","R_1P6I86geBEG9KZ4","standard","1","39","HP","14","461.501","475.507","476.061","14.56","0.554","3","114",""
"40","R_1P6I86geBEG9KZ4","standard","1","40","HP","20","477.076","497.083","497.359","20.283","0.276","3","117",""
"41","R_1P6I86geBEG9KZ4","standard","1","41","HP","6","498.376","504.38","NA","7.011","NA","0","117",""
"42","R_1P6I86geBEG9KZ4","standard","1","42","HP","14","506.395","520.405","520.686","14.291","0.281","3","120",""
"43","R_1P6I86geBEG9KZ4","standard","1","43","HP","2","521.691","523.709","524.515","2.824","0.806","3","123",""
"44","R_1P6I86geBEG9KZ4","standard","1","44","HP","12","525.524","537.528","537.856","12.332","0.328","3","126",""
"45","R_1P6I86geBEG9KZ4","standard","1","45","HP","4","538.86","542.868","543.325","4.465","0.457","3","129",""
"46","R_1P6I86geBEG9KZ4","standard","1","46","HP","20","544.331","564.339","564.596","20.265","0.257","3","132",""
"47","R_1P6I86geBEG9KZ4","standard","1","47","HP","6","565.611","571.614","571.931","6.32","0.317","3","135",""
"48","R_1P6I86geBEG9KZ4","standard","1","48","HP","18","572.933","590.939","591.26","18.327","0.321","3","138",""
"49","R_1P6I86geBEG9KZ4","standard","1","49","HP","6","592.278","598.283","598.595","6.317","0.312","3","141",""
"50","R_1P6I86geBEG9KZ4","standard","1","50","HP","2","599.603","601.617","601.969","2.366","0.352","3","144",""
"51","R_1P6I86geBEG9KZ4","standard","1","51","HP","12","602.971","614.989","615.259","12.288","0.27","3","147",""
"52","R_1P6I86geBEG9KZ4","standard","1","52","HP","14","616.277","630.283","630.599","14.322","0.316","3","150",""
"53","R_1P6I86geBEG9KZ4","standard","1","53","HP","2","631.604","633.606","633.956","2.352","0.35","3","153",""
"54","R_1P6I86geBEG9KZ4","standard","1","54","HP","14","634.971","648.979","649.293","14.322","0.314","3","156",""
"55","R_1P6I86geBEG9KZ4","standard","1","55","HP","14","650.313","664.322","664.676","14.363","0.354","3","159",""
"56","R_1P6I86geBEG9KZ4","standard","1","56","HP","4","665.683","669.705","670.048","4.365","0.343","3","162",""
"57","R_1P6I86geBEG9KZ4","standard","1","57","HP","8","671.051","679.059","679.352","8.301","0.293","3","165",""
"58","R_1P6I86geBEG9KZ4","standard","1","58","HP","8","680.363","688.371","688.661","8.298","0.29","3","168",""
"59","R_1P6I86geBEG9KZ4","standard","1","59","HP","10","689.671","699.675","700.005","10.334","0.33","3","171",""
"60","R_1P6I86geBEG9KZ4","standard","1","60","HP","20","701.011","721.016","721.327","20.316","0.311","3","174",""
"61","R_1P6I86geBEG9KZ4","standard","1","61","HP","14","722.331","736.339","736.674","14.343","0.335","3","177",""
"62","R_1P6I86geBEG9KZ4","standard","1","62","HP","4","737.886","741.904","742.303","4.417","0.399","3","180",""
"63","R_1P6I86geBEG9KZ4","standard","1","63","HP","2","743.316","745.318","745.689","2.373","0.371","3","183",""
"64","R_1P6I86geBEG9KZ4","standard","1","64","HP","2","746.698","748.699","749.111","2.413","0.412","3","186",""
"65","R_1P6I86geBEG9KZ4","standard","1","65","HP","18","750.122","768.122","768.415","18.293","0.293","3","189",""
"66","R_1P6I86geBEG9KZ4","standard","1","66","HP","18","769.419","787.435","787.722","18.303","0.287","3","192",""
"67","R_1P6I86geBEG9KZ4","standard","1","67","HP","2","788.723","790.739","791.105","2.382","0.366","3","195",""
"68","R_1P6I86geBEG9KZ4","standard","1","68","HP","12","792.108","804.12","804.453","12.345","0.333","3","198",""
"69","R_1P6I86geBEG9KZ4","standard","1","69","HP","10","805.462","815.467","815.752","10.29","0.285","3","201",""
"70","R_1P6I86geBEG9KZ4","standard","1","70","HP","18","816.755","834.763","835.025","18.27","0.262","3","204",""
"71","R_1P6I86geBEG9KZ4","standard","1","71","HP","10","836.038","846.044","846.422","10.384","0.378","3","207",""
"72","R_1P6I86geBEG9KZ4","standard","1","72","HP","10","847.427","857.435","857.759","10.332","0.324","3","210",""
"73","R_1P6I86geBEG9KZ4","standard","1","73","HP","20","858.765","878.777","879.085","20.32","0.308","3","213",""
"74","R_1P6I86geBEG9KZ4","standard","1","74","HP","18","880.091","898.099","898.433","18.342","0.334","3","216",""
"75","R_1P6I86geBEG9KZ4","standard","2","1","LP","13.0392072382594","0","13.05","13.35","13.35","0.3","3","219",NA
"76","R_1P6I86geBEG9KZ4","standard","2","2","LP","19.8235243429556","14.368","34.197","34.498","20.13","0.301","3","222",NA
"77","R_1P6I86geBEG9KZ4","standard","2","3","LP","0.264713485566566","35.501","35.773","36.267","0.766","0.494","3","225",NA
"78","R_1P6I86geBEG9KZ4","standard","2","4","LP","0.661783713916415","37.269","37.933","38.294","1.025","0.361","3","228",NA
"79","R_1P6I86geBEG9KZ4","standard","2","5","LP","0.264713485566566","39.301","39.573","39.944","0.643","0.371","3","231",NA
"80","R_1P6I86geBEG9KZ4","standard","2","6","LP","5.5010771219302","40.949","46.465","46.835","5.886","0.37","3","234",NA
"81","R_1P6I86geBEG9KZ4","standard","2","7","LP","30","47.837","77.846","78.244","30.407","0.398","3","237",NA
"82","R_1P6I86geBEG9KZ4","standard","2","8","LP","19.8235243429556","79.245","99.068","99.347","20.102","0.279","3","240",NA
"83","R_1P6I86geBEG9KZ4","standard","2","9","LP","2.15079707022835","100.359","102.509","102.803","2.444","0.294","3","243",NA
"84","R_1P6I86geBEG9KZ4","standard","2","10","LP","19.8235243429556","103.805","123.629","124.021","20.216","0.392","3","246",NA
"85","R_1P6I86geBEG9KZ4","standard","2","11","LP","13.0392072382594","125.025","138.068","138.432","13.407","0.364","3","249",NA
"86","R_1P6I86geBEG9KZ4","standard","2","12","LP","3.49090909090909","139.437","142.942","143.285","3.848","0.343","3","252",NA
"87","R_1P6I86geBEG9KZ4","standard","2","13","LP","13.0392072382594","144.308","157.349","157.661","13.353","0.312","3","255",NA
"88","R_1P6I86geBEG9KZ4","standard","2","14","LP","19.8235243429556","158.673","178.501","178.793","20.12","0.292","3","258",NA
"89","R_1P6I86geBEG9KZ4","standard","2","15","LP","0.661783713916415","179.797","180.461","180.996","1.199","0.535","3","261",NA
"90","R_1P6I86geBEG9KZ4","standard","2","16","LP","5.5010771219302","181.997","187.501","187.867","5.87","0.366","3","264",NA
"91","R_1P6I86geBEG9KZ4","standard","2","17","LP","30","188.877","218.885","219.119","30.242","0.234","3","267",NA
"92","R_1P6I86geBEG9KZ4","standard","2","18","LP","30","220.119","250.125","250.431","30.312","0.306","3","270",NA
"93","R_1P6I86geBEG9KZ4","standard","2","19","LP","8.51632916846187","251.437","259.959","260.257","8.82","0.298","3","273",NA
"94","R_1P6I86geBEG9KZ4","standard","2","20","LP","8.51632916846187","261.262","269.795","270.138","8.876","0.343","3","276",NA
"95","R_1P6I86geBEG9KZ4","standard","2","21","LP","13.0392072382594","271.141","284.189","284.536","13.395","0.347","3","279",NA
"96","R_1P6I86geBEG9KZ4","standard","2","22","LP","0.661783713916415","285.556","286.22","286.581","1.025","0.361","3","282",NA
"97","R_1P6I86geBEG9KZ4","standard","2","23","LP","30","287.604","317.607","317.881","30.277","0.274","3","285",NA
"98","R_1P6I86geBEG9KZ4","standard","2","24","LP","19.8235243429556","318.894","338.736","339.095","20.201","0.359","3","288",NA
"99","R_1P6I86geBEG9KZ4","standard","2","25","LP","2.15079707022835","340.101","342.257","342.581","2.48","0.324","3","291",NA
"100","R_1P6I86geBEG9KZ4","standard","2","26","LP","30","343.588","373.609","373.882","30.294","0.273","3","294",NA
"101","R_1P6I86geBEG9KZ4","standard","2","27","LP","0.264713485566566","374.897","375.176","375.661","0.764","0.485","3","297",NA
"102","R_1P6I86geBEG9KZ4","standard","2","28","LP","0.264713485566566","376.681","376.948","377.32","0.639","0.372","3","300",NA
"103","R_1P6I86geBEG9KZ4","standard","2","29","LP","1.25738905644119","378.326","379.589","379.936","1.61","0.347","3","303",NA
"104","R_1P6I86geBEG9KZ4","standard","2","30","LP","19.8235243429556","380.941","400.773","401.051","20.11","0.278","3","306",NA
"105","R_1P6I86geBEG9KZ4","standard","2","31","LP","13.0392072382594","402.053","415.093","415.431","13.378","0.338","3","309",NA
"106","R_1P6I86geBEG9KZ4","standard","2","32","LP","19.8235243429556","416.437","436.261","436.612","20.175","0.351","3","312",NA
"107","R_1P6I86geBEG9KZ4","standard","2","33","LP","5.5010771219302","437.618","443.125","443.452","5.834","0.327","3","315",NA
"108","R_1P6I86geBEG9KZ4","standard","2","34","LP","30","444.453","474.462","474.739","30.286","0.277","3","318",NA
"109","R_1P6I86geBEG9KZ4","standard","2","35","LP","5.5010771219302","475.741","481.245","481.577","5.836","0.332","3","321",NA
"110","R_1P6I86geBEG9KZ4","standard","2","36","LP","8.51632916846187","482.59","491.111","491.435","8.845","0.324","3","324",NA
"111","R_1P6I86geBEG9KZ4","standard","2","37","LP","2.15079707022835","492.441","494.597","494.953","2.512","0.356","3","327",NA
"112","R_1P6I86geBEG9KZ4","standard","2","38","LP","8.51632916846187","495.962","504.485","504.812","8.85","0.327","3","330",NA
"113","R_1P6I86geBEG9KZ4","standard","2","39","LP","19.8235243429556","505.813","525.645","525.953","20.14","0.308","3","333",NA
"114","R_1P6I86geBEG9KZ4","standard","2","40","LP","0.661783713916415","526.958","527.625","528.05","1.092","0.425","3","336",NA
"115","R_1P6I86geBEG9KZ4","standard","2","41","LP","0.264713485566566","529.053","529.329","529.682","0.629","0.353","3","339",NA
"116","R_1P6I86geBEG9KZ4","standard","2","42","LP","13.0392072382594","530.685","543.727","544.052","13.367","0.325","3","342",NA
"117","R_1P6I86geBEG9KZ4","standard","2","43","LP","30","545.053","575.061","575.33","30.277","0.269","3","345",NA
"118","R_1P6I86geBEG9KZ4","standard","2","44","LP","19.8235243429556","576.334","NaN","580.972","4.638","NaN","0","345",NA
"119","R_1P6I86geBEG9KZ4","standard","2","45","LP","2.15079707022835","581.983","584.141","584.486","2.503","0.345","3","348",NA
