"","subject_id","condition","n_block","n_trialIdx","f_timing_condition","n_scheduled_delay","n_trial_start_time","n_rewarded_time_fin","n_sell_time_fin","n_time_waited_fin","RT_fin","n_trial_earnings_fin","n_total_earnings_fin","keypress_times"
"1","R_1P8mLklmBcFMgIN","standard","1","1","HP","14","0.001","14.002","14.32","14.319","0.318","3","3",""
"2","R_1P8mLklmBcFMgIN","standard","1","2","HP","16","15.322","31.322","31.661","16.339","0.339","3","6",""
"3","R_1P8mLklmBcFMgIN","standard","1","3","HP","4","32.662","36.664","37.062","4.4","0.398","3","9",""
"4","R_1P8mLklmBcFMgIN","standard","1","4","HP","2","38.063","40.064","40.402","2.339","0.338","3","12",""
"5","R_1P8mLklmBcFMgIN","standard","1","5","HP","6","41.402","47.403","47.687","6.285","0.284","3","15",""
"6","R_1P8mLklmBcFMgIN","standard","1","6","HP","10","48.689","58.689","59.079","10.39","0.39","3","18",""
"7","R_1P8mLklmBcFMgIN","standard","1","7","HP","12","60.08","72.08","72.347","12.267","0.267","3","21",""
"8","R_1P8mLklmBcFMgIN","standard","1","8","HP","14","73.348","87.349","87.602","14.254","0.253","3","24",""
"9","R_1P8mLklmBcFMgIN","standard","1","9","HP","4","88.603","92.603","92.871","4.268","0.268","3","27",""
"10","R_1P8mLklmBcFMgIN","standard","1","10","HP","10","93.872","103.874","104.114","10.242","0.24","3","30",""
"11","R_1P8mLklmBcFMgIN","standard","1","11","HP","16","105.115","121.115","121.436","16.321","0.321","3","33",""
"12","R_1P8mLklmBcFMgIN","standard","1","12","HP","20","122.438","142.439","142.728","20.29","0.289","3","36",""
"13","R_1P8mLklmBcFMgIN","standard","1","13","HP","20","143.728","163.729","164.096","20.368","0.367","3","39",""
"14","R_1P8mLklmBcFMgIN","standard","1","14","HP","14","165.113","179.116","179.374","14.261","0.258","3","42",""
"15","R_1P8mLklmBcFMgIN","standard","1","15","HP","14","180.376","194.376","194.659","14.283","0.283","3","45",""
"16","R_1P8mLklmBcFMgIN","standard","1","16","HP","14","195.66","209.662","209.949","14.289","0.287","3","48",""
"17","R_1P8mLklmBcFMgIN","standard","1","17","HP","4","210.95","214.952","215.242","4.292","0.29","3","51",""
"18","R_1P8mLklmBcFMgIN","standard","1","18","HP","20","216.243","236.245","236.51","20.267","0.265","3","54",""
"19","R_1P8mLklmBcFMgIN","standard","1","19","HP","16","237.512","253.512","253.775","16.263","0.263","3","57",""
"20","R_1P8mLklmBcFMgIN","standard","1","20","HP","4","254.775","258.776","259.171","4.396","0.395","3","60",""
"21","R_1P8mLklmBcFMgIN","standard","1","21","HP","20","260.172","280.173","280.456","20.284","0.283","3","63",""
"22","R_1P8mLklmBcFMgIN","standard","1","22","HP","16","281.457","297.458","298.071","16.614","0.613","3","66",""
"23","R_1P8mLklmBcFMgIN","standard","1","23","HP","6","299.073","305.073","305.363","6.29","0.29","3","69",""
"24","R_1P8mLklmBcFMgIN","standard","1","24","HP","16","306.364","322.365","322.641","16.277","0.276","3","72",""
"25","R_1P8mLklmBcFMgIN","standard","1","25","HP","20","323.643","343.645","343.957","20.314","0.312","3","75",""
"26","R_1P8mLklmBcFMgIN","standard","1","26","HP","4","344.958","348.959","349.289","4.331","0.33","3","78",""
"27","R_1P8mLklmBcFMgIN","standard","1","27","HP","18","350.291","368.291","368.595","18.304","0.304","3","81",""
"28","R_1P8mLklmBcFMgIN","standard","1","28","HP","18","369.596","387.598","387.895","18.299","0.297","3","84",""
"29","R_1P8mLklmBcFMgIN","standard","1","29","HP","6","388.897","394.898","395.378","6.481","0.48","3","87",""
"30","R_1P8mLklmBcFMgIN","standard","1","30","HP","4","396.38","400.381","400.733","4.353","0.352","3","90",""
"31","R_1P8mLklmBcFMgIN","standard","1","31","HP","8","401.734","409.735","410.04","8.306","0.305","3","93",""
"32","R_1P8mLklmBcFMgIN","standard","1","32","HP","16","411.041","427.042","427.312","16.271","0.27","3","96",""
"33","R_1P8mLklmBcFMgIN","standard","1","33","HP","18","428.313","446.314","446.709","18.396","0.395","3","99",""
"34","R_1P8mLklmBcFMgIN","standard","1","34","HP","8","447.71","455.711","456.076","8.366","0.365","3","102",""
"35","R_1P8mLklmBcFMgIN","standard","1","35","HP","10","457.078","467.079","467.411","10.333","0.332","3","105",""
"36","R_1P8mLklmBcFMgIN","standard","1","36","HP","10","468.412","478.413","478.682","10.27","0.269","3","108",""
"37","R_1P8mLklmBcFMgIN","standard","1","37","HP","12","479.683","491.684","491.998","12.315","0.314","3","111",""
"38","R_1P8mLklmBcFMgIN","standard","1","38","HP","20","492.998","512.999","513.305","20.307","0.306","3","114",""
"39","R_1P8mLklmBcFMgIN","standard","1","39","HP","4","514.306","518.307","518.675","4.369","0.368","3","117",""
"40","R_1P8mLklmBcFMgIN","standard","1","40","HP","14","519.676","533.676","533.946","14.27","0.27","3","120",""
"41","R_1P8mLklmBcFMgIN","standard","1","41","HP","20","534.947","554.948","555.211","20.264","0.263","3","123",""
"42","R_1P8mLklmBcFMgIN","standard","1","42","HP","20","556.212","576.213","576.538","20.326","0.325","3","126",""
"43","R_1P8mLklmBcFMgIN","standard","1","43","HP","4","577.539","581.54","NA","5.002","NA","0","126",""
"44","R_1P8mLklmBcFMgIN","standard","1","44","HP","18","583.542","601.543","601.893","18.351","0.35","3","129",""
"45","R_1P8mLklmBcFMgIN","standard","1","45","HP","6","602.895","608.896","609.293","6.398","0.397","3","132",""
"46","R_1P8mLklmBcFMgIN","standard","1","46","HP","12","610.295","622.296","622.58","12.285","0.284","3","135",""
"47","R_1P8mLklmBcFMgIN","standard","1","47","HP","10","623.582","633.583","633.975","10.393","0.392","3","138",""
"48","R_1P8mLklmBcFMgIN","standard","1","48","HP","8","634.976","642.976","643.322","8.346","0.346","3","141",""
"49","R_1P8mLklmBcFMgIN","standard","1","49","HP","16","644.323","660.324","660.604","16.281","0.28","3","144",""
"50","R_1P8mLklmBcFMgIN","standard","1","50","HP","16","661.605","677.606","677.932","16.327","0.326","3","147",""
"51","R_1P8mLklmBcFMgIN","standard","1","51","HP","18","678.934","696.935","697.301","18.367","0.366","3","150",""
"52","R_1P8mLklmBcFMgIN","standard","1","52","HP","6","698.303","704.304","704.657","6.354","0.353","3","153",""
"53","R_1P8mLklmBcFMgIN","standard","1","53","HP","6","705.658","711.66","711.99","6.332","0.33","3","156",""
"54","R_1P8mLklmBcFMgIN","standard","1","54","HP","12","712.991","724.991","725.369","12.378","0.378","3","159",""
"55","R_1P8mLklmBcFMgIN","standard","1","55","HP","10","726.37","736.371","736.694","10.324","0.323","3","162",""
"56","R_1P8mLklmBcFMgIN","standard","1","56","HP","16","737.695","753.696","753.998","16.303","0.302","3","165",""
"57","R_1P8mLklmBcFMgIN","standard","1","57","HP","18","754.999","773","773.277","18.278","0.277","3","168",""
"58","R_1P8mLklmBcFMgIN","standard","1","58","HP","8","774.279","782.279","782.667","8.388","0.388","3","171",""
"59","R_1P8mLklmBcFMgIN","standard","1","59","HP","14","783.669","797.67","798.001","14.332","0.331","3","174",""
"60","R_1P8mLklmBcFMgIN","standard","1","60","HP","12","799.002","811.003","811.328","12.326","0.325","3","177",""
"61","R_1P8mLklmBcFMgIN","standard","1","61","HP","18","812.329","830.33","830.654","18.325","0.324","3","180",""
"62","R_1P8mLklmBcFMgIN","standard","1","62","HP","18","831.655","849.656","849.94","18.285","0.284","3","183",""
"63","R_1P8mLklmBcFMgIN","standard","1","63","HP","4","850.941","854.942","855.268","4.327","0.326","3","186",""
"64","R_1P8mLklmBcFMgIN","standard","1","64","HP","10","856.27","866.27","866.532","10.262","0.262","3","189",""
"65","R_1P8mLklmBcFMgIN","standard","1","65","HP","16","867.535","883.536","883.873","16.338","0.337","3","192",""
"66","R_1P8mLklmBcFMgIN","standard","1","66","HP","6","884.874","890.875","891.161","6.287","0.286","3","195",""
"67","R_1P8mLklmBcFMgIN","standard","2","1","LP","2.15079707022835","0","2.151","2.476","2.476","0.325","3","198",NA
"68","R_1P8mLklmBcFMgIN","standard","2","2","LP","0.264713485566566","3.477","3.742","4.094","0.617","0.352","3","201",NA
"69","R_1P8mLklmBcFMgIN","standard","2","3","LP","19.8235243429556","5.095","NaN","11.198","6.103","NaN","0","201",NA
"70","R_1P8mLklmBcFMgIN","standard","2","4","LP","30","12.2","NaN","18.082","5.882","NaN","0","201",NA
"71","R_1P8mLklmBcFMgIN","standard","2","5","LP","2.15079707022835","19.083","21.234","21.527","2.444","0.293","3","204",NA
"72","R_1P8mLklmBcFMgIN","standard","2","6","LP","13.0392072382594","22.528","NaN","27.625","5.097","NaN","0","204",NA
"73","R_1P8mLklmBcFMgIN","standard","2","7","LP","5.5010771219302","28.625","NaN","33.765","5.14","NaN","0","204",NA
"74","R_1P8mLklmBcFMgIN","standard","2","8","LP","19.8235243429556","34.766","NaN","42.897","8.131","NaN","0","204",NA
"75","R_1P8mLklmBcFMgIN","standard","2","9","LP","30","43.898","NaN","51.915","8.017","NaN","0","204",NA
"76","R_1P8mLklmBcFMgIN","standard","2","10","LP","0.264713485566566","52.916","53.181","53.535","0.619","0.354","3","207",NA
"77","R_1P8mLklmBcFMgIN","standard","2","11","LP","13.0392072382594","54.535","NaN","66.094","11.559","NaN","0","207",NA
"78","R_1P8mLklmBcFMgIN","standard","2","12","LP","8.51632916846187","67.096","75.613","75.912","8.816","0.299","3","210",NA
"79","R_1P8mLklmBcFMgIN","standard","2","13","LP","19.8235243429556","76.913","NaN","86.251","9.338","NaN","0","210",NA
"80","R_1P8mLklmBcFMgIN","standard","2","14","LP","13.0392072382594","87.252","NaN","95.418","8.166","NaN","0","210",NA
"81","R_1P8mLklmBcFMgIN","standard","2","15","LP","2.15079707022835","96.42","98.571","98.897","2.477","0.326","3","213",NA
"82","R_1P8mLklmBcFMgIN","standard","2","16","LP","1.25738905644119","99.899","101.157","101.552","1.653","0.395","3","216",NA
"83","R_1P8mLklmBcFMgIN","standard","2","17","LP","0.264713485566566","102.553","102.818","103.121","0.568","0.303","3","219",NA
"84","R_1P8mLklmBcFMgIN","standard","2","18","LP","3.49090909090909","104.122","107.613","107.983","3.861","0.37","3","222",NA
"85","R_1P8mLklmBcFMgIN","standard","2","19","LP","3.49090909090909","108.984","112.475","112.773","3.789","0.298","3","225",NA
"86","R_1P8mLklmBcFMgIN","standard","2","20","LP","1.25738905644119","113.774","115.032","115.345","1.571","0.313","3","228",NA
"87","R_1P8mLklmBcFMgIN","standard","2","21","LP","8.51632916846187","116.346","124.863","125.145","8.799","0.282","3","231",NA
"88","R_1P8mLklmBcFMgIN","standard","2","22","LP","0.661783713916415","126.147","126.809","127.181","1.034","0.372","3","234",NA
"89","R_1P8mLklmBcFMgIN","standard","2","23","LP","1.25738905644119","128.182","129.441","129.761","1.579","0.32","3","237",NA
"90","R_1P8mLklmBcFMgIN","standard","2","24","LP","0.264713485566566","130.763","131.028","131.337","0.574","0.309","3","240",NA
"91","R_1P8mLklmBcFMgIN","standard","2","25","LP","0.661783713916415","132.338","133","133.44","1.102","0.44","3","243",NA
"92","R_1P8mLklmBcFMgIN","standard","2","26","LP","0.264713485566566","134.441","134.705","134.986","0.545","0.281","3","246",NA
"93","R_1P8mLklmBcFMgIN","standard","2","27","LP","19.8235243429556","135.987","NaN","143.777","7.79","NaN","0","246",NA
"94","R_1P8mLklmBcFMgIN","standard","2","28","LP","2.15079707022835","144.777","146.928","147.217","2.44","0.289","3","249",NA
"95","R_1P8mLklmBcFMgIN","standard","2","29","LP","0.264713485566566","148.219","148.484","148.915","0.696","0.431","3","252",NA
"96","R_1P8mLklmBcFMgIN","standard","2","30","LP","30","149.916","NaN","158.569","8.653","NaN","0","252",NA
"97","R_1P8mLklmBcFMgIN","standard","2","31","LP","13.0392072382594","159.57","NaN","167.304","7.734","NaN","0","252",NA
"98","R_1P8mLklmBcFMgIN","standard","2","32","LP","0.661783713916415","168.305","168.968","169.297","0.992","0.329","3","255",NA
"99","R_1P8mLklmBcFMgIN","standard","2","33","LP","5.5010771219302","170.298","175.8","176.143","5.845","0.343","3","258",NA
"100","R_1P8mLklmBcFMgIN","standard","2","34","LP","3.49090909090909","177.144","180.635","180.968","3.824","0.333","3","261",NA
"101","R_1P8mLklmBcFMgIN","standard","2","35","LP","5.5010771219302","181.97","187.472","187.743","5.773","0.271","3","264",NA
"102","R_1P8mLklmBcFMgIN","standard","2","36","LP","30","188.745","NaN","196.434","7.689","NaN","0","264",NA
"103","R_1P8mLklmBcFMgIN","standard","2","37","LP","8.51632916846187","197.436","NaN","205.712","8.276","NaN","0","264",NA
"104","R_1P8mLklmBcFMgIN","standard","2","38","LP","13.0392072382594","206.713","NaN","214.965","8.252","NaN","0","264",NA
"105","R_1P8mLklmBcFMgIN","standard","2","39","LP","13.0392072382594","215.967","NaN","224.084","8.117","NaN","0","264",NA
"106","R_1P8mLklmBcFMgIN","standard","2","40","LP","5.5010771219302","225.085","230.587","230.921","5.836","0.334","3","267",NA
"107","R_1P8mLklmBcFMgIN","standard","2","41","LP","30","231.922","NaN","240.231","8.309","NaN","0","267",NA
"108","R_1P8mLklmBcFMgIN","standard","2","42","LP","5.5010771219302","241.232","246.734","247.017","5.785","0.283","3","270",NA
"109","R_1P8mLklmBcFMgIN","standard","2","43","LP","19.8235243429556","248.019","NaN","256.566","8.547","NaN","0","270",NA
"110","R_1P8mLklmBcFMgIN","standard","2","44","LP","0.661783713916415","257.567","258.229","258.566","0.999","0.337","3","273",NA
"111","R_1P8mLklmBcFMgIN","standard","2","45","LP","13.0392072382594","259.568","NaN","267.961","8.393","NaN","0","273",NA
"112","R_1P8mLklmBcFMgIN","standard","2","46","LP","8.51632916846187","268.962","277.479","277.873","8.911","0.394","3","276",NA
"113","R_1P8mLklmBcFMgIN","standard","2","47","LP","19.8235243429556","278.874","NaN","286.951","8.077","NaN","0","276",NA
"114","R_1P8mLklmBcFMgIN","standard","2","48","LP","3.49090909090909","287.951","291.443","291.76","3.809","0.317","3","279",NA
"115","R_1P8mLklmBcFMgIN","standard","2","49","LP","13.0392072382594","292.761","NaN","301.563","8.802","NaN","0","279",NA
"116","R_1P8mLklmBcFMgIN","standard","2","50","LP","8.51632916846187","302.564","311.081","311.282","8.718","0.201","3","282",NA
"117","R_1P8mLklmBcFMgIN","standard","2","51","LP","3.49090909090909","312.283","315.774","316.369","4.086","0.595","3","285",NA
"118","R_1P8mLklmBcFMgIN","standard","2","52","LP","2.15079707022835","317.37","319.521","319.87","2.5","0.349","3","288",NA
"119","R_1P8mLklmBcFMgIN","standard","2","53","LP","8.51632916846187","320.871","329.387","329.679","8.808","0.292","3","291",NA
"120","R_1P8mLklmBcFMgIN","standard","2","54","LP","0.661783713916415","330.68","331.342","331.68","1","0.338","3","294",NA
"121","R_1P8mLklmBcFMgIN","standard","2","55","LP","3.49090909090909","332.68","336.172","336.481","3.801","0.309","3","297",NA
"122","R_1P8mLklmBcFMgIN","standard","2","56","LP","5.5010771219302","337.483","342.986","343.301","5.818","0.315","3","300",NA
"123","R_1P8mLklmBcFMgIN","standard","2","57","LP","13.0392072382594","344.302","NaN","352.641","8.339","NaN","0","300",NA
"124","R_1P8mLklmBcFMgIN","standard","2","58","LP","0.661783713916415","353.642","354.303","354.612","0.97","0.309","3","303",NA
"125","R_1P8mLklmBcFMgIN","standard","2","59","LP","3.49090909090909","355.613","359.104","359.414","3.801","0.31","3","306",NA
"126","R_1P8mLklmBcFMgIN","standard","2","60","LP","13.0392072382594","360.415","NaN","370.014","9.599","NaN","0","306",NA
"127","R_1P8mLklmBcFMgIN","standard","2","61","LP","1.25738905644119","371.014","372.273","372.736","1.722","0.463","3","309",NA
"128","R_1P8mLklmBcFMgIN","standard","2","62","LP","5.5010771219302","373.737","379.239","379.526","5.789","0.287","3","312",NA
"129","R_1P8mLklmBcFMgIN","standard","2","63","LP","30","380.528","NaN","388.941","8.413","NaN","0","312",NA
"130","R_1P8mLklmBcFMgIN","standard","2","64","LP","2.15079707022835","389.943","392.094","392.559","2.616","0.465","3","315",NA
"131","R_1P8mLklmBcFMgIN","standard","2","65","LP","1.25738905644119","393.561","394.819","395.193","1.632","0.374","3","318",NA
"132","R_1P8mLklmBcFMgIN","standard","2","66","LP","13.0392072382594","396.195","NaN","404.216","8.021","NaN","0","318",NA
"133","R_1P8mLklmBcFMgIN","standard","2","67","LP","3.49090909090909","405.217","408.708","409.004","3.787","0.296","3","321",NA
"134","R_1P8mLklmBcFMgIN","standard","2","68","LP","1.25738905644119","410.006","411.264","411.602","1.596","0.338","3","324",NA
"135","R_1P8mLklmBcFMgIN","standard","2","69","LP","5.5010771219302","412.603","418.105","418.391","5.788","0.286","3","327",NA
"136","R_1P8mLklmBcFMgIN","standard","2","70","LP","2.15079707022835","419.392","421.544","421.835","2.443","0.291","3","330",NA
"137","R_1P8mLklmBcFMgIN","standard","2","71","LP","3.49090909090909","422.836","426.327","426.649","3.813","0.322","3","333",NA
"138","R_1P8mLklmBcFMgIN","standard","2","72","LP","19.8235243429556","427.65","NaN","440.529","12.879","NaN","0","333",NA
"139","R_1P8mLklmBcFMgIN","standard","2","73","LP","3.49090909090909","441.53","445.021","445.32","3.79","0.299","3","336",NA
"140","R_1P8mLklmBcFMgIN","standard","2","74","LP","8.51632916846187","446.321","NaN","454.488","8.167","NaN","0","336",NA
"141","R_1P8mLklmBcFMgIN","standard","2","75","LP","3.49090909090909","455.489","458.98","459.327","3.838","0.347","3","339",NA
"142","R_1P8mLklmBcFMgIN","standard","2","76","LP","0.661783713916415","460.328","460.991","461.39","1.062","0.399","3","342",NA
"143","R_1P8mLklmBcFMgIN","standard","2","77","LP","13.0392072382594","462.391","NaN","470.555","8.164","NaN","0","342",NA
"144","R_1P8mLklmBcFMgIN","standard","2","78","LP","13.0392072382594","471.556","NaN","480.092","8.536","NaN","0","342",NA
"145","R_1P8mLklmBcFMgIN","standard","2","79","LP","8.51632916846187","481.093","489.61","489.908","8.815","0.298","3","345",NA
"146","R_1P8mLklmBcFMgIN","standard","2","80","LP","13.0392072382594","490.909","NaN","499.44","8.531","NaN","0","345",NA
"147","R_1P8mLklmBcFMgIN","standard","2","81","LP","0.661783713916415","500.441","501.103","501.562","1.121","0.459","3","348",NA
"148","R_1P8mLklmBcFMgIN","standard","2","82","LP","0.264713485566566","502.563","502.828","503.333","0.77","0.505","3","351",NA
"149","R_1P8mLklmBcFMgIN","standard","2","83","LP","8.51632916846187","504.334","NaN","512.74","8.406","NaN","0","351",NA
"150","R_1P8mLklmBcFMgIN","standard","2","84","LP","19.8235243429556","513.741","NaN","519.705","5.964","NaN","0","351",NA
"151","R_1P8mLklmBcFMgIN","standard","2","85","LP","8.51632916846187","520.706","NaN","528.384","7.678","NaN","0","351",NA
"152","R_1P8mLklmBcFMgIN","standard","2","86","LP","19.8235243429556","529.386","NaN","536.889","7.503","NaN","0","351",NA
"153","R_1P8mLklmBcFMgIN","standard","2","87","LP","1.25738905644119","537.89","539.149","539.519","1.629","0.37","3","354",NA
"154","R_1P8mLklmBcFMgIN","standard","2","88","LP","30","540.52","NaN","549.173","8.653","NaN","0","354",NA
"155","R_1P8mLklmBcFMgIN","standard","2","89","LP","1.25738905644119","550.175","551.433","551.813","1.638","0.38","3","357",NA
"156","R_1P8mLklmBcFMgIN","standard","2","90","LP","5.5010771219302","552.814","558.315","558.614","5.8","0.299","3","360",NA
"157","R_1P8mLklmBcFMgIN","standard","2","91","LP","1.25738905644119","559.615","560.873","561.215","1.6","0.342","3","363",NA
"158","R_1P8mLklmBcFMgIN","standard","2","92","LP","0.661783713916415","562.217","562.879","563.211","0.994","0.332","3","366",NA
"159","R_1P8mLklmBcFMgIN","standard","2","93","LP","3.49090909090909","564.212","567.703","568.06","3.848","0.357","3","369",NA
"160","R_1P8mLklmBcFMgIN","standard","2","94","LP","2.15079707022835","569.062","571.213",NA,"3.153",NA,"0","369",NA
"161","R_1P8mLklmBcFMgIN","standard","2","95","LP","1.25738905644119","573.216","574.474","574.77","1.554","0.296","3","372",NA
"162","R_1P8mLklmBcFMgIN","standard","2","96","LP","2.15079707022835","575.771","577.922","578.248","2.477","0.326","3","375",NA
"163","R_1P8mLklmBcFMgIN","standard","2","97","LP","8.51632916846187","579.249","NaN","587.288","8.039","NaN","0","375",NA
"164","R_1P8mLklmBcFMgIN","standard","2","98","LP","13.0392072382594","588.289","NaN","595.839","7.55","NaN","0","375",NA
