"","subject_id","condition","n_block","n_trialIdx","f_timing_condition","n_scheduled_delay","n_trial_start_time","n_rewarded_time_fin","n_sell_time_fin","n_time_waited_fin","RT_fin","n_trial_earnings_fin","n_total_earnings_fin","keypress_times"
"1","R_1Qo6shjoxUk7NB0","standard","1","1","LP","19.8235243429556","0.001","19.836","20.186","20.185","0.35","3","3",""
"2","R_1Qo6shjoxUk7NB0","standard","1","2","LP","2.15079707022835","21.2","23.353","23.784","2.584","0.431","3","6",""
"3","R_1Qo6shjoxUk7NB0","standard","1","3","LP","8.51632916846187","24.804","33.321","33.826","9.022","0.505","3","9",""
"4","R_1Qo6shjoxUk7NB0","standard","1","4","LP","1.25738905644119","34.843","36.112","36.504","1.661","0.392","3","12",""
"5","R_1Qo6shjoxUk7NB0","standard","1","5","LP","0.264713485566566","37.517","37.796","38.253","0.736","0.457","3","15",""
"6","R_1Qo6shjoxUk7NB0","standard","1","6","LP","0.264713485566566","39.263","39.542","39.974","0.711","0.432","3","18",""
"7","R_1Qo6shjoxUk7NB0","standard","1","7","LP","13.0392072382594","40.982","54.041","54.486","13.504","0.445","3","21",""
"8","R_1Qo6shjoxUk7NB0","standard","1","8","LP","8.51632916846187","55.505","64.03","64.525","9.02","0.495","3","24",""
"9","R_1Qo6shjoxUk7NB0","standard","1","9","LP","13.0392072382594","65.53","78.574","78.986","13.456","0.412","3","27",""
"10","R_1Qo6shjoxUk7NB0","standard","1","10","LP","30","79.989","110.011","110.346","30.357","0.335","3","30",""
"11","R_1Qo6shjoxUk7NB0","standard","1","11","LP","13.0392072382594","111.363","124.421","124.877","13.514","0.456","3","33",""
"12","R_1Qo6shjoxUk7NB0","standard","1","12","LP","2.15079707022835","125.89","128.046","128.706","2.816","0.66","3","36",""
"13","R_1Qo6shjoxUk7NB0","standard","1","13","LP","5.5010771219302","129.717","135.22","135.577","5.86","0.357","3","39",""
"14","R_1Qo6shjoxUk7NB0","standard","1","14","LP","13.0392072382594","136.596","149.639","150.097","13.501","0.458","3","42",""
"15","R_1Qo6shjoxUk7NB0","standard","1","15","LP","1.25738905644119","151.106","152.38","152.906","1.8","0.526","3","45",""
"16","R_1Qo6shjoxUk7NB0","standard","1","16","LP","0.264713485566566","153.919","154.204","154.676","0.757","0.472","3","48",""
"17","R_1Qo6shjoxUk7NB0","standard","1","17","LP","1.25738905644119","155.694","156.957","157.396","1.702","0.439","3","51",""
"18","R_1Qo6shjoxUk7NB0","standard","1","18","LP","2.15079707022835","158.407","160.581","160.995","2.588","0.414","3","54",""
"19","R_1Qo6shjoxUk7NB0","standard","1","19","LP","1.25738905644119","161.998","163.266","163.635","1.637","0.369","3","57",""
"20","R_1Qo6shjoxUk7NB0","standard","1","20","LP","0.264713485566566","164.65","164.915","165.396","0.746","0.481","3","60",""
"21","R_1Qo6shjoxUk7NB0","standard","1","21","LP","19.8235243429556","166.399","186.223","186.627","20.228","0.404","3","63",""
"22","R_1Qo6shjoxUk7NB0","standard","1","22","LP","19.8235243429556","187.64","207.479","207.938","20.298","0.459","3","66",""
"23","R_1Qo6shjoxUk7NB0","standard","1","23","LP","5.5010771219302","208.946","214.451","214.846","5.9","0.395","3","69",""
"24","R_1Qo6shjoxUk7NB0","standard","1","24","LP","13.0392072382594","215.852","228.893","229.278","13.426","0.385","3","72",""
"25","R_1Qo6shjoxUk7NB0","standard","1","25","LP","8.51632916846187","230.294","238.819","239.226","8.932","0.407","3","75",""
"26","R_1Qo6shjoxUk7NB0","standard","1","26","LP","8.51632916846187","240.236","248.76","249.137","8.901","0.377","3","78",""
"27","R_1Qo6shjoxUk7NB0","standard","1","27","LP","0.264713485566566","250.145","250.41","250.878","0.733","0.468","3","81",""
"28","R_1Qo6shjoxUk7NB0","standard","1","28","LP","19.8235243429556","251.885","271.724","272.178","20.293","0.454","3","84",""
"29","R_1Qo6shjoxUk7NB0","standard","1","29","LP","2.15079707022835","273.2","275.358","275.786","2.586","0.428","3","87",""
"30","R_1Qo6shjoxUk7NB0","standard","1","30","LP","2.15079707022835","276.792","278.946","279.328","2.536","0.382","3","90",""
"31","R_1Qo6shjoxUk7NB0","standard","1","31","LP","0.264713485566566","280.334","280.611","281.078","0.744","0.467","3","93",""
"32","R_1Qo6shjoxUk7NB0","standard","1","32","LP","0.264713485566566","282.098","282.364","282.749","0.651","0.385","3","96",""
"33","R_1Qo6shjoxUk7NB0","standard","1","33","LP","30","283.782","313.801","314.199","30.417","0.398","3","99",""
"34","R_1Qo6shjoxUk7NB0","standard","1","34","LP","2.15079707022835","315.22","317.386","317.918","2.698","0.532","3","102",""
"35","R_1Qo6shjoxUk7NB0","standard","1","35","LP","5.5010771219302","318.92","324.443","324.878","5.958","0.435","3","105",""
"36","R_1Qo6shjoxUk7NB0","standard","1","36","LP","30","325.9","355.924","356.3","30.4","0.376","3","108",""
"37","R_1Qo6shjoxUk7NB0","standard","1","37","LP","3.49090909090909","357.315","360.812","361.258","3.943","0.446","3","111",""
"38","R_1Qo6shjoxUk7NB0","standard","1","38","LP","0.264713485566566","362.27","362.553","363.108","0.838","0.555","3","114",""
"39","R_1Qo6shjoxUk7NB0","standard","1","39","LP","2.15079707022835","364.124","366.288","366.7","2.576","0.412","3","117",""
"40","R_1Qo6shjoxUk7NB0","standard","1","40","LP","2.15079707022835","367.721","369.891","370.428","2.707","0.537","3","120",""
"41","R_1Qo6shjoxUk7NB0","standard","1","41","LP","13.0392072382594","371.442","384.492","384.899","13.457","0.407","3","123",""
"42","R_1Qo6shjoxUk7NB0","standard","1","42","LP","1.25738905644119","385.916","387.186","387.757","1.841","0.571","3","126",""
"43","R_1Qo6shjoxUk7NB0","standard","1","43","LP","19.8235243429556","388.77","408.597","409.01","20.24","0.413","3","129",""
"44","R_1Qo6shjoxUk7NB0","standard","1","44","LP","0.661783713916415","410.017","410.685","411.098","1.081","0.413","3","132",""
"45","R_1Qo6shjoxUk7NB0","standard","1","45","LP","2.15079707022835","412.104","414.271","414.668","2.564","0.397","3","135",""
"46","R_1Qo6shjoxUk7NB0","standard","1","46","LP","13.0392072382594","415.688","428.733","429.11","13.422","0.377","3","138",""
"47","R_1Qo6shjoxUk7NB0","standard","1","47","LP","3.49090909090909","430.116","433.619","434.171","4.055","0.552","3","141",""
"48","R_1Qo6shjoxUk7NB0","standard","1","48","LP","0.264713485566566","435.175","435.452","435.929","0.754","0.477","3","144",""
"49","R_1Qo6shjoxUk7NB0","standard","1","49","LP","2.15079707022835","436.937","439.104","439.561","2.624","0.457","3","147",""
"50","R_1Qo6shjoxUk7NB0","standard","1","50","LP","0.264713485566566","440.573","440.84","441.329","0.756","0.489","3","150",""
"51","R_1Qo6shjoxUk7NB0","standard","1","51","LP","2.15079707022835","442.341","444.509","444.959","2.618","0.45","3","153",""
"52","R_1Qo6shjoxUk7NB0","standard","1","52","LP","5.5010771219302","445.977","451.496","451.931","5.954","0.435","3","156",""
"53","R_1Qo6shjoxUk7NB0","standard","1","53","LP","19.8235243429556","452.936","472.765","473.161","20.225","0.396","3","159",""
"54","R_1Qo6shjoxUk7NB0","standard","1","54","LP","5.5010771219302","474.179","479.698","480.1","5.921","0.402","3","162",""
"55","R_1Qo6shjoxUk7NB0","standard","1","55","LP","1.25738905644119","481.117","482.381","482.79","1.673","0.409","3","165",""
"56","R_1Qo6shjoxUk7NB0","standard","1","56","LP","30","483.801","513.82","514.172","30.371","0.352","3","168",""
"57","R_1Qo6shjoxUk7NB0","standard","1","57","LP","3.49090909090909","515.191","518.693","519.09","3.899","0.397","3","171",""
"58","R_1Qo6shjoxUk7NB0","standard","1","58","LP","1.25738905644119","520.098","521.361","521.781","1.683","0.42","3","174",""
"59","R_1Qo6shjoxUk7NB0","standard","1","59","LP","0.264713485566566","522.795","523.061","523.59","0.795","0.529","3","177",""
"60","R_1Qo6shjoxUk7NB0","standard","1","60","LP","30","524.598","554.615","554.961","30.363","0.346","3","180",""
"61","R_1Qo6shjoxUk7NB0","standard","1","61","LP","3.49090909090909","555.967","559.471","559.949","3.982","0.478","3","183",""
"62","R_1Qo6shjoxUk7NB0","standard","1","62","LP","3.49090909090909","560.955","564.456","564.929","3.974","0.473","3","186",""
"63","R_1Qo6shjoxUk7NB0","standard","1","63","LP","0.264713485566566","565.942","566.209","566.881","0.939","0.672","3","189",""
"64","R_1Qo6shjoxUk7NB0","standard","1","64","LP","0.661783713916415","567.887","568.558","568.959","1.072","0.401","3","192",""
"65","R_1Qo6shjoxUk7NB0","standard","1","65","LP","2.15079707022835","569.978","572.146","572.68","2.702","0.534","3","195",""
"66","R_1Qo6shjoxUk7NB0","standard","1","66","LP","2.15079707022835","573.686","575.851","576.319","2.633","0.468","3","198",""
"67","R_1Qo6shjoxUk7NB0","standard","1","67","LP","3.49090909090909","577.336","580.837","581.291","3.955","0.454","3","201",""
"68","R_1Qo6shjoxUk7NB0","standard","1","68","LP","3.49090909090909","582.302","585.805","586.21","3.908","0.405","3","204",""
"69","R_1Qo6shjoxUk7NB0","standard","1","69","LP","0.264713485566566","587.225","587.505","588.179","0.954","0.674","3","207",""
"70","R_1Qo6shjoxUk7NB0","standard","1","70","LP","3.49090909090909","589.191","592.692","593.192","4.001","0.5","3","210",""
"71","R_1Qo6shjoxUk7NB0","standard","1","71","LP","30","594.21","624.215","624.583","30.373","0.368","3","213",""
"72","R_1Qo6shjoxUk7NB0","standard","1","72","LP","19.8235243429556","625.59","645.415","645.863","20.273","0.448","3","216",""
"73","R_1Qo6shjoxUk7NB0","standard","1","73","LP","30","646.881","676.9","677.283","30.402","0.383","3","219",""
"74","R_1Qo6shjoxUk7NB0","standard","1","74","LP","19.8235243429556","678.286","698.131","698.524","20.238","0.393","3","222",""
"75","R_1Qo6shjoxUk7NB0","standard","1","75","LP","5.5010771219302","699.534","705.042","705.412","5.878","0.37","3","225",""
"76","R_1Qo6shjoxUk7NB0","standard","1","76","LP","30","706.422","736.457","736.825","30.403","0.368","3","228",""
"77","R_1Qo6shjoxUk7NB0","standard","1","77","LP","3.49090909090909","737.831","741.329","741.723","3.892","0.394","3","231",""
"78","R_1Qo6shjoxUk7NB0","standard","1","78","LP","8.51632916846187","742.726","751.245","751.635","8.909","0.39","3","234",""
"79","R_1Qo6shjoxUk7NB0","standard","1","79","LP","2.15079707022835","752.638","754.804","755.193","2.555","0.389","3","237",""
"80","R_1Qo6shjoxUk7NB0","standard","1","80","LP","0.661783713916415","756.204","756.869","757.293","1.089","0.424","3","240",""
"81","R_1Qo6shjoxUk7NB0","standard","1","81","LP","8.51632916846187","758.306","766.844","767.325","9.019","0.481","3","243",""
"82","R_1Qo6shjoxUk7NB0","standard","1","82","LP","3.49090909090909","768.344","771.846","772.222","3.878","0.376","3","246",""
"83","R_1Qo6shjoxUk7NB0","standard","1","83","LP","1.25738905644119","773.24","774.501","774.932","1.692","0.431","3","249",""
"84","R_1Qo6shjoxUk7NB0","standard","1","84","LP","1.25738905644119","775.938","777.204","777.673","1.735","0.469","3","252",""
"85","R_1Qo6shjoxUk7NB0","standard","1","85","LP","2.15079707022835","778.689","780.84","781.294","2.605","0.454","3","255",""
"86","R_1Qo6shjoxUk7NB0","standard","1","86","LP","8.51632916846187","782.308","790.839","791.275","8.967","0.436","3","258",""
"87","R_1Qo6shjoxUk7NB0","standard","1","87","LP","5.5010771219302","792.281","797.799","798.202","5.921","0.403","3","261",""
"88","R_1Qo6shjoxUk7NB0","standard","1","88","LP","19.8235243429556","799.232","819.083","819.466","20.234","0.383","3","264",""
"89","R_1Qo6shjoxUk7NB0","standard","1","89","LP","30","820.483","850.486","850.815","30.332","0.329","3","267",""
"90","R_1Qo6shjoxUk7NB0","standard","1","90","LP","3.49090909090909","851.831","855.326","855.714","3.883","0.388","3","270",""
"91","R_1Qo6shjoxUk7NB0","standard","1","91","LP","3.49090909090909","856.725","860.228","860.624","3.899","0.396","3","273",""
"92","R_1Qo6shjoxUk7NB0","standard","1","92","LP","30","861.632","891.644","891.996","30.364","0.352","3","276",""
"93","R_1Qo6shjoxUk7NB0","standard","1","93","LP","5.5010771219302","893.016","898.518","898.915","5.899","0.397","3","279",""
"94","R_1Qo6shjoxUk7NB0","standard","2","1","LP","8.51632916846187","0","NaN","1.803","1.803","NaN","0","279",NA
"95","R_1Qo6shjoxUk7NB0","standard","2","2","LP","2.15079707022835","2.811","NaN","4.454","1.643","NaN","0","279",NA
"96","R_1Qo6shjoxUk7NB0","standard","2","3","LP","3.49090909090909","5.479","NaN","7.203","1.724","NaN","0","279",NA
"97","R_1Qo6shjoxUk7NB0","standard","2","4","LP","3.49090909090909","8.229","NaN","10.093","1.864","NaN","0","279",NA
"98","R_1Qo6shjoxUk7NB0","standard","2","5","LP","0.264713485566566","11.114","11.401","11.862","0.748","0.461","3","282",NA
"99","R_1Qo6shjoxUk7NB0","standard","2","6","LP","1.25738905644119","12.867","14.146","14.554","1.687","0.408","3","285",NA
"100","R_1Qo6shjoxUk7NB0","standard","2","7","LP","0.264713485566566","15.563","15.837","16.283","0.72","0.446","3","288",NA
"101","R_1Qo6shjoxUk7NB0","standard","2","8","LP","13.0392072382594","17.303","NaN","19.263","1.96","NaN","0","288",NA
"102","R_1Qo6shjoxUk7NB0","standard","2","9","LP","13.0392072382594","20.267","NaN","22.021","1.754","NaN","0","288",NA
"103","R_1Qo6shjoxUk7NB0","standard","2","10","LP","3.49090909090909","23.026","NaN","25.074","2.048","NaN","0","288",NA
"104","R_1Qo6shjoxUk7NB0","standard","2","11","LP","30","26.089","NaN","27.955","1.866","NaN","0","288",NA
"105","R_1Qo6shjoxUk7NB0","standard","2","12","LP","3.49090909090909","28.978","NaN","30.984","2.006","NaN","0","288",NA
"106","R_1Qo6shjoxUk7NB0","standard","2","13","LP","0.661783713916415","31.996","32.681","33.084","1.088","0.403","3","291",NA
"107","R_1Qo6shjoxUk7NB0","standard","2","14","LP","30","34.097","NaN","36.205","2.108","NaN","0","291",NA
"108","R_1Qo6shjoxUk7NB0","standard","2","15","LP","0.661783713916415","37.223","37.9","38.364","1.141","0.464","3","294",NA
"109","R_1Qo6shjoxUk7NB0","standard","2","16","LP","0.661783713916415","39.385","40.075","40.464","1.079","0.389","3","297",NA
"110","R_1Qo6shjoxUk7NB0","standard","2","17","LP","19.8235243429556","41.47","NaN","43.544","2.074","NaN","0","297",NA
"111","R_1Qo6shjoxUk7NB0","standard","2","18","LP","0.264713485566566","44.556","44.824","45.254","0.698","0.43","3","300",NA
"112","R_1Qo6shjoxUk7NB0","standard","2","19","LP","19.8235243429556","46.257","NaN","48.573","2.316","NaN","0","300",NA
"113","R_1Qo6shjoxUk7NB0","standard","2","20","LP","8.51632916846187","49.592","NaN","51.374","1.782","NaN","0","300",NA
"114","R_1Qo6shjoxUk7NB0","standard","2","21","LP","2.15079707022835","52.378","NaN","54.015","1.637","NaN","0","300",NA
"115","R_1Qo6shjoxUk7NB0","standard","2","22","LP","30","55.017","NaN","56.944","1.927","NaN","0","300",NA
"116","R_1Qo6shjoxUk7NB0","standard","2","23","LP","3.49090909090909","57.949","NaN","60.186","2.237","NaN","0","300",NA
"117","R_1Qo6shjoxUk7NB0","standard","2","24","LP","0.264713485566566","61.21","61.512","61.984","0.774","0.472","3","303",NA
"118","R_1Qo6shjoxUk7NB0","standard","2","25","LP","1.25738905644119","63.002","64.269","64.633","1.631","0.364","3","306",NA
"119","R_1Qo6shjoxUk7NB0","standard","2","26","LP","2.15079707022835","65.645","NaN","67.754","2.109","NaN","0","306",NA
"120","R_1Qo6shjoxUk7NB0","standard","2","27","LP","3.49090909090909","68.756","NaN","70.765","2.009","NaN","0","306",NA
"121","R_1Qo6shjoxUk7NB0","standard","2","28","LP","0.264713485566566","71.791","72.058","72.545","0.754","0.487","3","309",NA
"122","R_1Qo6shjoxUk7NB0","standard","2","29","LP","0.661783713916415","73.557","74.228","74.613","1.056","0.385","3","312",NA
"123","R_1Qo6shjoxUk7NB0","standard","2","30","LP","2.15079707022835","75.63","77.786","77.873","2.243","0.087","3","315",NA
"124","R_1Qo6shjoxUk7NB0","standard","2","31","LP","0.264713485566566","78.895","79.163","79.684","0.789","0.521","3","318",NA
"125","R_1Qo6shjoxUk7NB0","standard","2","32","LP","1.25738905644119","80.689","81.948","82.375","1.686","0.427","3","321",NA
"126","R_1Qo6shjoxUk7NB0","standard","2","33","LP","3.49090909090909","83.381","NaN","85.613","2.232","NaN","0","321",NA
"127","R_1Qo6shjoxUk7NB0","standard","2","34","LP","5.5010771219302","86.629","NaN","88.663","2.034","NaN","0","321",NA
"128","R_1Qo6shjoxUk7NB0","standard","2","35","LP","0.661783713916415","89.669","90.353","90.753","1.084","0.4","3","324",NA
"129","R_1Qo6shjoxUk7NB0","standard","2","36","LP","19.8235243429556","91.762","NaN","93.956","2.194","NaN","0","324",NA
"130","R_1Qo6shjoxUk7NB0","standard","2","37","LP","2.15079707022835","94.962","NaN","96.963","2.001","NaN","0","324",NA
"131","R_1Qo6shjoxUk7NB0","standard","2","38","LP","8.51632916846187","97.976","NaN","100.322","2.346","NaN","0","324",NA
"132","R_1Qo6shjoxUk7NB0","standard","2","39","LP","2.15079707022835","101.329","NaN","103.454","2.125","NaN","0","324",NA
"133","R_1Qo6shjoxUk7NB0","standard","2","40","LP","13.0392072382594","104.464","NaN","106.686","2.222","NaN","0","324",NA
"134","R_1Qo6shjoxUk7NB0","standard","2","41","LP","1.25738905644119","107.709","108.97","109.374","1.665","0.404","3","327",NA
"135","R_1Qo6shjoxUk7NB0","standard","2","42","LP","5.5010771219302","110.383","NaN","111.924","1.541","NaN","0","327",NA
"136","R_1Qo6shjoxUk7NB0","standard","2","43","LP","13.0392072382594","112.931","NaN","115.115","2.184","NaN","0","327",NA
"137","R_1Qo6shjoxUk7NB0","standard","2","44","LP","30","116.12","NaN","118.066","1.946","NaN","0","327",NA
"138","R_1Qo6shjoxUk7NB0","standard","2","45","LP","8.51632916846187","119.089","NaN","121.024","1.935","NaN","0","327",NA
"139","R_1Qo6shjoxUk7NB0","standard","2","46","LP","0.661783713916415","122.042","122.708","123.174","1.132","0.466","3","330",NA
"140","R_1Qo6shjoxUk7NB0","standard","2","47","LP","1.25738905644119","124.179","125.445","125.864","1.685","0.419","3","333",NA
"141","R_1Qo6shjoxUk7NB0","standard","2","48","LP","13.0392072382594","126.878","NaN","129.096","2.218","NaN","0","333",NA
"142","R_1Qo6shjoxUk7NB0","standard","2","49","LP","30","130.114","NaN","131.985","1.871","NaN","0","333",NA
"143","R_1Qo6shjoxUk7NB0","standard","2","50","LP","0.264713485566566","133.002","133.288","133.725","0.723","0.437","3","336",NA
"144","R_1Qo6shjoxUk7NB0","standard","2","51","LP","30","134.746","NaN","136.743","1.997","NaN","0","336",NA
"145","R_1Qo6shjoxUk7NB0","standard","2","52","LP","30","137.753","NaN","139.426","1.673","NaN","0","336",NA
"146","R_1Qo6shjoxUk7NB0","standard","2","53","LP","30","140.439","NaN","141.695","1.256","NaN","0","336",NA
"147","R_1Qo6shjoxUk7NB0","standard","2","54","LP","1.25738905644119","142.708","143.971","144.375","1.667","0.404","3","339",NA
"148","R_1Qo6shjoxUk7NB0","standard","2","55","LP","3.49090909090909","145.392","NaN","147.305","1.913","NaN","0","339",NA
"149","R_1Qo6shjoxUk7NB0","standard","2","56","LP","19.8235243429556","148.314","NaN","150.016","1.702","NaN","0","339",NA
"150","R_1Qo6shjoxUk7NB0","standard","2","57","LP","19.8235243429556","151.031","NaN","152.715","1.684","NaN","0","339",NA
"151","R_1Qo6shjoxUk7NB0","standard","2","58","LP","30","153.73","NaN","155.605","1.875","NaN","0","339",NA
"152","R_1Qo6shjoxUk7NB0","standard","2","59","LP","13.0392072382594","156.615","NaN","158.515","1.9","NaN","0","339",NA
"153","R_1Qo6shjoxUk7NB0","standard","2","60","LP","0.264713485566566","159.52","159.8","160.297","0.777","0.497","3","342",NA
"154","R_1Qo6shjoxUk7NB0","standard","2","61","LP","2.15079707022835","161.313","NaN","163.455","2.142","NaN","0","342",NA
"155","R_1Qo6shjoxUk7NB0","standard","2","62","LP","8.51632916846187","164.471","NaN","166.554","2.083","NaN","0","342",NA
"156","R_1Qo6shjoxUk7NB0","standard","2","63","LP","1.25738905644119","167.573","168.845","169.265","1.692","0.42","3","345",NA
"157","R_1Qo6shjoxUk7NB0","standard","2","64","LP","0.661783713916415","170.275","170.943","171.397","1.122","0.454","3","348",NA
"158","R_1Qo6shjoxUk7NB0","standard","2","65","LP","0.661783713916415","172.421","173.09","173.514","1.093","0.424","3","351",NA
"159","R_1Qo6shjoxUk7NB0","standard","2","66","LP","13.0392072382594","174.526","NaN","177.005","2.479","NaN","0","351",NA
"160","R_1Qo6shjoxUk7NB0","standard","2","67","LP","8.51632916846187","178.013","NaN","180.606","2.593","NaN","0","351",NA
"161","R_1Qo6shjoxUk7NB0","standard","2","68","LP","0.264713485566566","181.615","181.883","182.357","0.742","0.474","3","354",NA
"162","R_1Qo6shjoxUk7NB0","standard","2","69","LP","8.51632916846187","183.362","NaN","185.096","1.734","NaN","0","354",NA
"163","R_1Qo6shjoxUk7NB0","standard","2","70","LP","0.264713485566566","186.101","186.385","186.845","0.744","0.46","3","357",NA
"164","R_1Qo6shjoxUk7NB0","standard","2","71","LP","19.8235243429556","187.855","NaN","189.707","1.852","NaN","0","357",NA
"165","R_1Qo6shjoxUk7NB0","standard","2","72","LP","8.51632916846187","190.714","NaN","192.897","2.183","NaN","0","357",NA
"166","R_1Qo6shjoxUk7NB0","standard","2","73","LP","0.264713485566566","193.907","194.192","194.656","0.749","0.464","3","360",NA
"167","R_1Qo6shjoxUk7NB0","standard","2","74","LP","5.5010771219302","195.676","NaN","197.356","1.68","NaN","0","360",NA
"168","R_1Qo6shjoxUk7NB0","standard","2","75","LP","13.0392072382594","198.378","NaN","200.295","1.917","NaN","0","360",NA
"169","R_1Qo6shjoxUk7NB0","standard","2","76","LP","8.51632916846187","201.311","NaN","203.277","1.966","NaN","0","360",NA
"170","R_1Qo6shjoxUk7NB0","standard","2","77","LP","1.25738905644119","204.297","205.564","205.925","1.628","0.361","3","363",NA
"171","R_1Qo6shjoxUk7NB0","standard","2","78","LP","13.0392072382594","206.937","NaN","208.996","2.059","NaN","0","363",NA
"172","R_1Qo6shjoxUk7NB0","standard","2","79","LP","5.5010771219302","210.003","NaN","211.844","1.841","NaN","0","363",NA
"173","R_1Qo6shjoxUk7NB0","standard","2","80","LP","13.0392072382594","212.855","NaN","214.678","1.823","NaN","0","363",NA
"174","R_1Qo6shjoxUk7NB0","standard","2","81","LP","3.49090909090909","215.689","NaN","217.556","1.867","NaN","0","363",NA
"175","R_1Qo6shjoxUk7NB0","standard","2","82","LP","30","218.559","NaN","220.396","1.837","NaN","0","363",NA
"176","R_1Qo6shjoxUk7NB0","standard","2","83","LP","0.661783713916415","221.411","222.083","222.525","1.114","0.442","3","366",NA
"177","R_1Qo6shjoxUk7NB0","standard","2","84","LP","13.0392072382594","223.544","NaN","225.577","2.033","NaN","0","366",NA
"178","R_1Qo6shjoxUk7NB0","standard","2","85","LP","19.8235243429556","226.599","NaN","228.804","2.205","NaN","0","366",NA
"179","R_1Qo6shjoxUk7NB0","standard","2","86","LP","1.25738905644119","229.817","231.084","231.556","1.739","0.472","3","369",NA
"180","R_1Qo6shjoxUk7NB0","standard","2","87","LP","13.0392072382594","232.585","NaN","234.746","2.161","NaN","0","369",NA
"181","R_1Qo6shjoxUk7NB0","standard","2","88","LP","30","235.754","NaN","238.177","2.423","NaN","0","369",NA
"182","R_1Qo6shjoxUk7NB0","standard","2","89","LP","13.0392072382594","239.189","NaN","241.045","1.856","NaN","0","369",NA
"183","R_1Qo6shjoxUk7NB0","standard","2","90","LP","13.0392072382594","242.051","NaN","244.065","2.014","NaN","0","369",NA
"184","R_1Qo6shjoxUk7NB0","standard","2","91","LP","19.8235243429556","245.077","NaN","247.014","1.937","NaN","0","369",NA
"185","R_1Qo6shjoxUk7NB0","standard","2","92","LP","0.264713485566566","248.029","248.298","248.787","0.758","0.489","3","372",NA
"186","R_1Qo6shjoxUk7NB0","standard","2","93","LP","13.0392072382594","249.795","NaN","251.974","2.179","NaN","0","372",NA
"187","R_1Qo6shjoxUk7NB0","standard","2","94","LP","0.264713485566566","252.982","253.248","253.686","0.704","0.438","3","375",NA
"188","R_1Qo6shjoxUk7NB0","standard","2","95","LP","13.0392072382594","254.698","NaN","256.487","1.789","NaN","0","375",NA
"189","R_1Qo6shjoxUk7NB0","standard","2","96","LP","1.25738905644119","257.502","258.762","259.138","1.636","0.376","3","378",NA
"190","R_1Qo6shjoxUk7NB0","standard","2","97","LP","3.49090909090909","260.153","NaN","261.966","1.813","NaN","0","378",NA
"191","R_1Qo6shjoxUk7NB0","standard","2","98","LP","3.49090909090909","262.97","NaN","265.046","2.076","NaN","0","378",NA
"192","R_1Qo6shjoxUk7NB0","standard","2","99","LP","5.5010771219302","266.058","NaN","268.166","2.108","NaN","0","378",NA
"193","R_1Qo6shjoxUk7NB0","standard","2","100","LP","5.5010771219302","269.176","NaN","271.199","2.023","NaN","0","378",NA
"194","R_1Qo6shjoxUk7NB0","standard","2","101","LP","30","272.207","NaN","274.276","2.069","NaN","0","378",NA
"195","R_1Qo6shjoxUk7NB0","standard","2","102","LP","19.8235243429556","275.299","NaN","277.376","2.077","NaN","0","378",NA
"196","R_1Qo6shjoxUk7NB0","standard","2","103","LP","8.51632916846187","278.382","NaN","280.337","1.955","NaN","0","378",NA
"197","R_1Qo6shjoxUk7NB0","standard","2","104","LP","2.15079707022835","281.352","NaN","283.407","2.055","NaN","0","378",NA
"198","R_1Qo6shjoxUk7NB0","standard","2","105","LP","5.5010771219302","284.42","NaN","286.26","1.84","NaN","0","378",NA
"199","R_1Qo6shjoxUk7NB0","standard","2","106","LP","19.8235243429556","287.271","NaN","289.506","2.235","NaN","0","378",NA
"200","R_1Qo6shjoxUk7NB0","standard","2","107","LP","13.0392072382594","290.521","NaN","292.596","2.075","NaN","0","378",NA
"201","R_1Qo6shjoxUk7NB0","standard","2","108","LP","2.15079707022835","293.608","NaN","295.708","2.1","NaN","0","378",NA
"202","R_1Qo6shjoxUk7NB0","standard","2","109","LP","3.49090909090909","296.711","NaN","298.886","2.175","NaN","0","378",NA
"203","R_1Qo6shjoxUk7NB0","standard","2","110","LP","1.25738905644119","299.902","301.165","301.576","1.674","0.411","3","381",NA
"204","R_1Qo6shjoxUk7NB0","standard","2","111","LP","2.15079707022835","302.583","304.74","304.807","2.224","0.067","3","384",NA
"205","R_1Qo6shjoxUk7NB0","standard","2","112","LP","0.661783713916415","305.81","306.484","306.998","1.188","0.514","3","387",NA
"206","R_1Qo6shjoxUk7NB0","standard","2","113","LP","30","308.002","NaN","309.966","1.964","NaN","0","387",NA
"207","R_1Qo6shjoxUk7NB0","standard","2","114","LP","0.264713485566566","310.972","311.239","311.696","0.724","0.457","3","390",NA
"208","R_1Qo6shjoxUk7NB0","standard","2","115","LP","0.264713485566566","312.703","312.972","313.437","0.734","0.465","3","393",NA
"209","R_1Qo6shjoxUk7NB0","standard","2","116","LP","13.0392072382594","314.444","NaN","316.546","2.102","NaN","0","393",NA
"210","R_1Qo6shjoxUk7NB0","standard","2","117","LP","2.15079707022835","317.557","NaN","319.438","1.881","NaN","0","393",NA
"211","R_1Qo6shjoxUk7NB0","standard","2","118","LP","30","320.444","NaN","322.297","1.853","NaN","0","393",NA
"212","R_1Qo6shjoxUk7NB0","standard","2","119","LP","2.15079707022835","323.306","NaN","325.208","1.902","NaN","0","393",NA
"213","R_1Qo6shjoxUk7NB0","standard","2","120","LP","8.51632916846187","326.215","NaN","328.008","1.793","NaN","0","393",NA
"214","R_1Qo6shjoxUk7NB0","standard","2","121","LP","0.661783713916415","329.01","329.694","330.139","1.129","0.445","3","396",NA
"215","R_1Qo6shjoxUk7NB0","standard","2","122","LP","1.25738905644119","331.153","332.423","332.688","1.535","0.265","3","399",NA
"216","R_1Qo6shjoxUk7NB0","standard","2","123","LP","8.51632916846187","333.704","NaN","335.358","1.654","NaN","0","399",NA
"217","R_1Qo6shjoxUk7NB0","standard","2","124","LP","0.661783713916415","336.373","337.04","337.588","1.215","0.548","3","402",NA
"218","R_1Qo6shjoxUk7NB0","standard","2","125","LP","0.264713485566566","338.591","338.875","339.308","0.717","0.433","3","405",NA
"219","R_1Qo6shjoxUk7NB0","standard","2","126","LP","2.15079707022835","340.328","NaN","342.049","1.721","NaN","0","405",NA
"220","R_1Qo6shjoxUk7NB0","standard","2","127","LP","3.49090909090909","343.077","NaN","344.348","1.271","NaN","0","405",NA
"221","R_1Qo6shjoxUk7NB0","standard","2","128","LP","0.264713485566566","345.379","345.662","346.167","0.788","0.505","3","408",NA
"222","R_1Qo6shjoxUk7NB0","standard","2","129","LP","5.5010771219302","347.179","NaN","348.667","1.488","NaN","0","408",NA
"223","R_1Qo6shjoxUk7NB0","standard","2","130","LP","1.25738905644119","349.679","350.945","351.387","1.708","0.442","3","411",NA
"224","R_1Qo6shjoxUk7NB0","standard","2","131","LP","13.0392072382594","352.405","NaN","354.179","1.774","NaN","0","411",NA
"225","R_1Qo6shjoxUk7NB0","standard","2","132","LP","8.51632916846187","355.202","NaN","356.648","1.446","NaN","0","411",NA
"226","R_1Qo6shjoxUk7NB0","standard","2","133","LP","19.8235243429556","357.651","NaN","359.178","1.527","NaN","0","411",NA
"227","R_1Qo6shjoxUk7NB0","standard","2","134","LP","3.49090909090909","360.188","NaN","361.686","1.498","NaN","0","411",NA
"228","R_1Qo6shjoxUk7NB0","standard","2","135","LP","3.49090909090909","362.718","NaN","364.479","1.761","NaN","0","411",NA
"229","R_1Qo6shjoxUk7NB0","standard","2","136","LP","30","365.483","NaN","367.178","1.695","NaN","0","411",NA
"230","R_1Qo6shjoxUk7NB0","standard","2","137","LP","5.5010771219302","368.195","NaN","369.929","1.734","NaN","0","411",NA
"231","R_1Qo6shjoxUk7NB0","standard","2","138","LP","0.264713485566566","370.947","371.215","371.748","0.801","0.533","3","414",NA
"232","R_1Qo6shjoxUk7NB0","standard","2","139","LP","0.661783713916415","372.754","373.418","373.808","1.054","0.39","3","417",NA
"233","R_1Qo6shjoxUk7NB0","standard","2","140","LP","0.661783713916415","374.814","375.483","375.899","1.085","0.416","3","420",NA
"234","R_1Qo6shjoxUk7NB0","standard","2","141","LP","2.15079707022835","376.915","379.085","379.106","2.191","0.021","3","423",NA
"235","R_1Qo6shjoxUk7NB0","standard","2","142","LP","13.0392072382594","380.121","NaN","381.959","1.838","NaN","0","423",NA
"236","R_1Qo6shjoxUk7NB0","standard","2","143","LP","13.0392072382594","382.988","NaN","384.508","1.52","NaN","0","423",NA
"237","R_1Qo6shjoxUk7NB0","standard","2","144","LP","5.5010771219302","385.511","NaN","387.299","1.788","NaN","0","423",NA
"238","R_1Qo6shjoxUk7NB0","standard","2","145","LP","19.8235243429556","388.308","NaN","389.707","1.399","NaN","0","423",NA
"239","R_1Qo6shjoxUk7NB0","standard","2","146","LP","0.661783713916415","390.714","391.393","391.787","1.073","0.394","3","426",NA
"240","R_1Qo6shjoxUk7NB0","standard","2","147","LP","1.25738905644119","392.795","394.058","394.449","1.654","0.391","3","429",NA
"241","R_1Qo6shjoxUk7NB0","standard","2","148","LP","30","395.462","NaN","397.371","1.909","NaN","0","429",NA
"242","R_1Qo6shjoxUk7NB0","standard","2","149","LP","3.49090909090909","398.379","NaN","399.919","1.54","NaN","0","429",NA
"243","R_1Qo6shjoxUk7NB0","standard","2","150","LP","8.51632916846187","400.934","NaN","402.578","1.644","NaN","0","429",NA
"244","R_1Qo6shjoxUk7NB0","standard","2","151","LP","13.0392072382594","403.601","NaN","404.989","1.388","NaN","0","429",NA
"245","R_1Qo6shjoxUk7NB0","standard","2","152","LP","5.5010771219302","406.002","NaN","406.628","0.626","NaN","0","429",NA
"246","R_1Qo6shjoxUk7NB0","standard","2","153","LP","13.0392072382594","407.635","NaN","408.47","0.835","NaN","0","429",NA
"247","R_1Qo6shjoxUk7NB0","standard","2","154","LP","3.49090909090909","409.474","NaN","410.398","0.924","NaN","0","429",NA
"248","R_1Qo6shjoxUk7NB0","standard","2","155","LP","1.25738905644119","411.414","NaN","412.128","0.714","NaN","0","429",NA
"249","R_1Qo6shjoxUk7NB0","standard","2","156","LP","30","413.141","NaN","413.88","0.739","NaN","0","429",NA
"250","R_1Qo6shjoxUk7NB0","standard","2","157","LP","13.0392072382594","414.885","NaN","415.789","0.904","NaN","0","429",NA
"251","R_1Qo6shjoxUk7NB0","standard","2","158","LP","0.661783713916415","416.798","417.479","417.688","0.89","0.209","3","432",NA
"252","R_1Qo6shjoxUk7NB0","standard","2","159","LP","5.5010771219302","418.709","NaN","419.76","1.051","NaN","0","432",NA
"253","R_1Qo6shjoxUk7NB0","standard","2","160","LP","8.51632916846187","420.763","NaN","421.909","1.146","NaN","0","432",NA
"254","R_1Qo6shjoxUk7NB0","standard","2","161","LP","8.51632916846187","422.927","NaN","423.889","0.962","NaN","0","432",NA
"255","R_1Qo6shjoxUk7NB0","standard","2","162","LP","2.15079707022835","424.901","NaN","426.119","1.218","NaN","0","432",NA
"256","R_1Qo6shjoxUk7NB0","standard","2","163","LP","8.51632916846187","427.12","NaN","428.178","1.058","NaN","0","432",NA
"257","R_1Qo6shjoxUk7NB0","standard","2","164","LP","0.264713485566566","429.201","429.487","429.992","0.791","0.505","3","435",NA
"258","R_1Qo6shjoxUk7NB0","standard","2","165","LP","13.0392072382594","431.009","NaN","431.749","0.74","NaN","0","435",NA
"259","R_1Qo6shjoxUk7NB0","standard","2","166","LP","2.15079707022835","432.757","NaN","433.848","1.091","NaN","0","435",NA
"260","R_1Qo6shjoxUk7NB0","standard","2","167","LP","1.25738905644119","434.851","436.116","436.519","1.668","0.403","3","438",NA
"261","R_1Qo6shjoxUk7NB0","standard","2","168","LP","1.25738905644119","437.526","438.793","439.179","1.653","0.386","3","441",NA
"262","R_1Qo6shjoxUk7NB0","standard","2","169","LP","0.264713485566566","440.197","440.467","440.98","0.783","0.513","3","444",NA
"263","R_1Qo6shjoxUk7NB0","standard","2","170","LP","30","441.992","NaN","443.9","1.908","NaN","0","444",NA
"264","R_1Qo6shjoxUk7NB0","standard","2","171","LP","1.25738905644119","444.917","446.181","446.599","1.682","0.418","3","447",NA
"265","R_1Qo6shjoxUk7NB0","standard","2","172","LP","8.51632916846187","447.61","NaN","449.289","1.679","NaN","0","447",NA
"266","R_1Qo6shjoxUk7NB0","standard","2","173","LP","3.49090909090909","450.3","NaN","452.228","1.928","NaN","0","447",NA
"267","R_1Qo6shjoxUk7NB0","standard","2","174","LP","30","453.231","NaN","455.029","1.798","NaN","0","447",NA
"268","R_1Qo6shjoxUk7NB0","standard","2","175","LP","5.5010771219302","456.041","NaN","457.879","1.838","NaN","0","447",NA
"269","R_1Qo6shjoxUk7NB0","standard","2","176","LP","1.25738905644119","458.89","460.154","460.529","1.639","0.375","3","450",NA
"270","R_1Qo6shjoxUk7NB0","standard","2","177","LP","2.15079707022835","461.542","NaN","463.231","1.689","NaN","0","450",NA
"271","R_1Qo6shjoxUk7NB0","standard","2","178","LP","0.661783713916415","464.245","464.908","465.418","1.173","0.51","3","453",NA
"272","R_1Qo6shjoxUk7NB0","standard","2","179","LP","3.49090909090909","466.432","NaN","468.169","1.737","NaN","0","453",NA
"273","R_1Qo6shjoxUk7NB0","standard","2","180","LP","2.15079707022835","469.184","NaN","470.859","1.675","NaN","0","453",NA
"274","R_1Qo6shjoxUk7NB0","standard","2","181","LP","30","471.882","NaN","473.56","1.678","NaN","0","453",NA
"275","R_1Qo6shjoxUk7NB0","standard","2","182","LP","0.661783713916415","474.562","475.238","475.638","1.076","0.4","3","456",NA
"276","R_1Qo6shjoxUk7NB0","standard","2","183","LP","3.49090909090909","476.67","NaN","478.319","1.649","NaN","0","456",NA
"277","R_1Qo6shjoxUk7NB0","standard","2","184","LP","8.51632916846187","479.322","NaN","481.269","1.947","NaN","0","456",NA
"278","R_1Qo6shjoxUk7NB0","standard","2","185","LP","30","482.29","NaN","484.012","1.722","NaN","0","456",NA
"279","R_1Qo6shjoxUk7NB0","standard","2","186","LP","1.25738905644119","485.036","486.307","486.411","1.375","0.104","3","459",NA
"280","R_1Qo6shjoxUk7NB0","standard","2","187","LP","19.8235243429556","487.412","NaN","489.319","1.907","NaN","0","459",NA
"281","R_1Qo6shjoxUk7NB0","standard","2","188","LP","3.49090909090909","490.329","NaN","491.79","1.461","NaN","0","459",NA
"282","R_1Qo6shjoxUk7NB0","standard","2","189","LP","13.0392072382594","492.81","NaN","494.611","1.801","NaN","0","459",NA
"283","R_1Qo6shjoxUk7NB0","standard","2","190","LP","30","495.614","NaN","497.42","1.806","NaN","0","459",NA
"284","R_1Qo6shjoxUk7NB0","standard","2","191","LP","19.8235243429556","498.436","NaN","500.439","2.003","NaN","0","459",NA
"285","R_1Qo6shjoxUk7NB0","standard","2","192","LP","5.5010771219302","501.443","NaN","503.359","1.916","NaN","0","459",NA
"286","R_1Qo6shjoxUk7NB0","standard","2","193","LP","0.264713485566566","504.363","504.639","505.111","0.748","0.472","3","462",NA
"287","R_1Qo6shjoxUk7NB0","standard","2","194","LP","0.264713485566566","506.112","506.388","506.779","0.667","0.391","3","465",NA
"288","R_1Qo6shjoxUk7NB0","standard","2","195","LP","13.0392072382594","507.789","NaN","509.379","1.59","NaN","0","465",NA
"289","R_1Qo6shjoxUk7NB0","standard","2","196","LP","3.49090909090909","510.392","NaN","512.25","1.858","NaN","0","465",NA
"290","R_1Qo6shjoxUk7NB0","standard","2","197","LP","30","513.259","NaN","515.312","2.053","NaN","0","465",NA
"291","R_1Qo6shjoxUk7NB0","standard","2","198","LP","5.5010771219302","516.314","NaN","517.838","1.524","NaN","0","465",NA
"292","R_1Qo6shjoxUk7NB0","standard","2","199","LP","19.8235243429556","518.85","NaN","520.65","1.8","NaN","0","465",NA
"293","R_1Qo6shjoxUk7NB0","standard","2","200","LP","8.51632916846187","521.658","NaN","523.548","1.89","NaN","0","465",NA
"294","R_1Qo6shjoxUk7NB0","standard","2","201","LP","13.0392072382594","524.57","NaN","526.291","1.721","NaN","0","465",NA
"295","R_1Qo6shjoxUk7NB0","standard","2","202","LP","0.661783713916415","527.303","527.972","528.459","1.156","0.487","3","468",NA
"296","R_1Qo6shjoxUk7NB0","standard","2","203","LP","0.661783713916415","529.472","530.14","530.629","1.157","0.489","3","471",NA
"297","R_1Qo6shjoxUk7NB0","standard","2","204","LP","0.661783713916415","531.635","532.307","532.7","1.065","0.393","3","474",NA
"298","R_1Qo6shjoxUk7NB0","standard","2","205","LP","3.49090909090909","533.712","NaN","535.789","2.077","NaN","0","474",NA
"299","R_1Qo6shjoxUk7NB0","standard","2","206","LP","5.5010771219302","536.795","NaN","538.611","1.816","NaN","0","474",NA
"300","R_1Qo6shjoxUk7NB0","standard","2","207","LP","0.264713485566566","539.615","539.896","540.43","0.815","0.534","3","477",NA
"301","R_1Qo6shjoxUk7NB0","standard","2","208","LP","30","541.444","NaN","543.239","1.795","NaN","0","477",NA
"302","R_1Qo6shjoxUk7NB0","standard","2","209","LP","30","544.25","NaN","546.27","2.02","NaN","0","477",NA
"303","R_1Qo6shjoxUk7NB0","standard","2","210","LP","2.15079707022835","547.285","NaN","549.141","1.856","NaN","0","477",NA
"304","R_1Qo6shjoxUk7NB0","standard","2","211","LP","19.8235243429556","550.154","NaN","552.499","2.345","NaN","0","477",NA
"305","R_1Qo6shjoxUk7NB0","standard","2","212","LP","2.15079707022835","553.51","NaN","555.521","2.011","NaN","0","477",NA
"306","R_1Qo6shjoxUk7NB0","standard","2","213","LP","2.15079707022835","556.523","NaN","558.501","1.978","NaN","0","477",NA
"307","R_1Qo6shjoxUk7NB0","standard","2","214","LP","8.51632916846187","559.51","NaN","561.53","2.02","NaN","0","477",NA
"308","R_1Qo6shjoxUk7NB0","standard","2","215","LP","3.49090909090909","562.539","NaN","564.211","1.672","NaN","0","477",NA
"309","R_1Qo6shjoxUk7NB0","standard","2","216","LP","8.51632916846187","565.218","NaN","567.081","1.863","NaN","0","477",NA
"310","R_1Qo6shjoxUk7NB0","standard","2","217","LP","19.8235243429556","568.097","NaN","570.131","2.034","NaN","0","477",NA
"311","R_1Qo6shjoxUk7NB0","standard","2","218","LP","13.0392072382594","571.152","NaN","573.26","2.108","NaN","0","477",NA
"312","R_1Qo6shjoxUk7NB0","standard","2","219","LP","8.51632916846187","574.27","NaN","576.431","2.161","NaN","0","477",NA
"313","R_1Qo6shjoxUk7NB0","standard","2","220","LP","0.264713485566566","577.441","577.722","578.2","0.759","0.478","3","480",NA
"314","R_1Qo6shjoxUk7NB0","standard","2","221","LP","2.15079707022835","579.207","581.374","581.43","2.223","0.056","3","483",NA
"315","R_1Qo6shjoxUk7NB0","standard","2","222","LP","0.661783713916415","582.443","583.115","583.682","1.239","0.567","3","486",NA
"316","R_1Qo6shjoxUk7NB0","standard","2","223","LP","13.0392072382594","584.691","NaN","586.771","2.08","NaN","0","486",NA
"317","R_1Qo6shjoxUk7NB0","standard","2","224","LP","19.8235243429556","587.779","NaN","589.289","1.51","NaN","0","486",NA
"318","R_1Qo6shjoxUk7NB0","standard","2","225","LP","30","590.291","NaN","592.231","1.94","NaN","0","486",NA
"319","R_1Qo6shjoxUk7NB0","standard","2","226","LP","13.0392072382594","593.235","NaN","595.092","1.857","NaN","0","486",NA
"320","R_1Qo6shjoxUk7NB0","standard","2","227","LP","30","596.101","NaN","597.381","1.28","NaN","0","486",NA
"321","R_1Qo6shjoxUk7NB0","standard","2","228","LP","19.8235243429556","598.387","NaN","599.36","0.973","NaN","0","486",NA
