"","subject_id","condition","n_block","n_trialIdx","f_timing_condition","n_scheduled_delay","n_trial_start_time","n_rewarded_time_fin","n_sell_time_fin","n_time_waited_fin","RT_fin","n_trial_earnings_fin","n_total_earnings_fin","keypress_times"
"1","R_1QMFmau8pEZ3IsC","standard","1","1","LP","2.15079707022835","0.001","2.162","2.519","2.518","0.357","3","3",""
"2","R_1QMFmau8pEZ3IsC","standard","1","2","LP","13.0392072382594","3.52","16.56","16.847","13.327","0.287","3","6",""
"3","R_1QMFmau8pEZ3IsC","standard","1","3","LP","2.15079707022835","17.86","20.02","20.348","2.488","0.328","3","9",""
"4","R_1QMFmau8pEZ3IsC","standard","1","4","LP","8.51632916846187","21.359","29.884","30.157","8.798","0.273","3","12",""
"5","R_1QMFmau8pEZ3IsC","standard","1","5","LP","5.5010771219302","31.163","36.667","36.924","5.761","0.257","3","15",""
"6","R_1QMFmau8pEZ3IsC","standard","1","6","LP","0.264713485566566","37.941","38.219","38.601","0.66","0.382","3","18",""
"7","R_1QMFmau8pEZ3IsC","standard","1","7","LP","3.49090909090909","39.603","43.111","43.41","3.807","0.299","3","21",""
"8","R_1QMFmau8pEZ3IsC","standard","1","8","LP","0.264713485566566","44.422","44.704","45.041","0.619","0.337","3","24",""
"9","R_1QMFmau8pEZ3IsC","standard","1","9","LP","30","46.043","76.043","76.275","30.232","0.232","3","27",""
"10","R_1QMFmau8pEZ3IsC","standard","1","10","LP","2.15079707022835","77.29","79.443","79.789","2.499","0.346","3","30",""
"11","R_1QMFmau8pEZ3IsC","standard","1","11","LP","30","80.795","110.803","111.047","30.252","0.244","3","33",""
"12","R_1QMFmau8pEZ3IsC","standard","1","12","LP","3.49090909090909","112.052","115.555","115.856","3.804","0.301","3","36",""
"13","R_1QMFmau8pEZ3IsC","standard","1","13","LP","0.264713485566566","116.873","117.151","117.494","0.621","0.343","3","39",""
"14","R_1QMFmau8pEZ3IsC","standard","1","14","LP","8.51632916846187","118.499","127.016","127.284","8.785","0.268","3","42",""
"15","R_1QMFmau8pEZ3IsC","standard","1","15","LP","1.25738905644119","128.296","129.56","129.914","1.618","0.354","3","45",""
"16","R_1QMFmau8pEZ3IsC","standard","1","16","LP","0.264713485566566","130.918","131.2","131.541","0.623","0.341","3","48",""
"17","R_1QMFmau8pEZ3IsC","standard","1","17","LP","1.25738905644119","132.543","133.808","134.35","1.807","0.542","3","51",""
"18","R_1QMFmau8pEZ3IsC","standard","1","18","LP","0.264713485566566","135.356","135.623","135.973","0.617","0.35","3","54",""
"19","R_1QMFmau8pEZ3IsC","standard","1","19","LP","1.25738905644119","136.978","138.243","138.575","1.597","0.332","3","57",""
"20","R_1QMFmau8pEZ3IsC","standard","1","20","LP","0.264713485566566","139.579","139.856","140.185","0.606","0.329","3","60",""
"21","R_1QMFmau8pEZ3IsC","standard","1","21","LP","0.661783713916415","141.198","141.867","142.177","0.979","0.31","3","63",""
"22","R_1QMFmau8pEZ3IsC","standard","1","22","LP","19.8235243429556","143.19","163.021","163.319","20.129","0.298","3","66",""
"23","R_1QMFmau8pEZ3IsC","standard","1","23","LP","0.661783713916415","164.333","164.995","165.282","0.949","0.287","3","69",""
"24","R_1QMFmau8pEZ3IsC","standard","1","24","LP","0.661783713916415","166.303","166.984","167.288","0.985","0.304","3","72",""
"25","R_1QMFmau8pEZ3IsC","standard","1","25","LP","8.51632916846187","168.292","176.809","177.079","8.787","0.27","3","75",""
"26","R_1QMFmau8pEZ3IsC","standard","1","26","LP","8.51632916846187","178.085","186.614","186.915","8.83","0.301","3","78",""
"27","R_1QMFmau8pEZ3IsC","standard","1","27","LP","2.15079707022835","187.934","190.097","190.384","2.45","0.287","3","81",""
"28","R_1QMFmau8pEZ3IsC","standard","1","28","LP","13.0392072382594","191.386","204.43","204.704","13.318","0.274","3","84",""
"29","R_1QMFmau8pEZ3IsC","standard","1","29","LP","30","205.707","235.715","235.978","30.271","0.263","3","87",""
"30","R_1QMFmau8pEZ3IsC","standard","1","30","LP","19.8235243429556","237","256.829","257.22","20.22","0.391","3","90",""
"31","R_1QMFmau8pEZ3IsC","standard","1","31","LP","2.15079707022835","258.233","260.4","260.743","2.51","0.343","3","93",""
"32","R_1QMFmau8pEZ3IsC","standard","1","32","LP","2.15079707022835","261.747","263.906","264.204","2.457","0.298","3","96",""
"33","R_1QMFmau8pEZ3IsC","standard","1","33","LP","0.264713485566566","265.204","265.482","265.857","0.653","0.375","3","99",""
"34","R_1QMFmau8pEZ3IsC","standard","1","34","LP","8.51632916846187","266.874","275.394","275.709","8.835","0.315","3","102",""
"35","R_1QMFmau8pEZ3IsC","standard","1","35","LP","19.8235243429556","276.724","296.554","296.873","20.149","0.319","3","105",""
"36","R_1QMFmau8pEZ3IsC","standard","1","36","LP","8.51632916846187","297.888","306.422","306.75","8.862","0.328","3","108",""
"37","R_1QMFmau8pEZ3IsC","standard","1","37","LP","5.5010771219302","307.754","313.27","313.616","5.862","0.346","3","111",""
"38","R_1QMFmau8pEZ3IsC","standard","1","38","LP","5.5010771219302","314.626","320.133","320.494","5.868","0.361","3","114",""
"39","R_1QMFmau8pEZ3IsC","standard","1","39","LP","3.49090909090909","321.503","325.006","325.336","3.833","0.33","3","117",""
"40","R_1QMFmau8pEZ3IsC","standard","1","40","LP","3.49090909090909","326.342","329.834","330.115","3.773","0.281","3","120",""
"41","R_1QMFmau8pEZ3IsC","standard","1","41","LP","8.51632916846187","331.128","339.651","339.957","8.829","0.306","3","123",""
"42","R_1QMFmau8pEZ3IsC","standard","1","42","LP","5.5010771219302","340.964","346.466","346.797","5.833","0.331","3","126",""
"43","R_1QMFmau8pEZ3IsC","standard","1","43","LP","2.15079707022835","347.807","349.959","350.373","2.566","0.414","3","129",""
"44","R_1QMFmau8pEZ3IsC","standard","1","44","LP","30","351.378","381.386","381.643","30.265","0.257","3","132",""
"45","R_1QMFmau8pEZ3IsC","standard","1","45","LP","2.15079707022835","382.651","384.811","385.087","2.436","0.276","3","135",""
"46","R_1QMFmau8pEZ3IsC","standard","1","46","LP","1.25738905644119","386.098","387.362","387.713","1.615","0.351","3","138",""
"47","R_1QMFmau8pEZ3IsC","standard","1","47","LP","2.15079707022835","388.721","390.879","391.183","2.462","0.304","3","141",""
"48","R_1QMFmau8pEZ3IsC","standard","1","48","LP","0.661783713916415","392.189","392.859","393.219","1.03","0.36","3","144",""
"49","R_1QMFmau8pEZ3IsC","standard","1","49","LP","3.49090909090909","394.229","397.733","398.068","3.839","0.335","3","147",""
"50","R_1QMFmau8pEZ3IsC","standard","1","50","LP","30","399.085","429.091","429.369","30.284","0.278","3","150",""
"51","R_1QMFmau8pEZ3IsC","standard","1","51","LP","8.51632916846187","430.371","438.903","439.228","8.857","0.325","3","153",""
"52","R_1QMFmau8pEZ3IsC","standard","1","52","LP","19.8235243429556","440.249","460.074","460.383","20.134","0.309","3","156",""
"53","R_1QMFmau8pEZ3IsC","standard","1","53","LP","0.661783713916415","461.387","462.051","462.375","0.988","0.324","3","159",""
"54","R_1QMFmau8pEZ3IsC","standard","1","54","LP","0.661783713916415","463.379","464.042","464.445","1.066","0.403","3","162",""
"55","R_1QMFmau8pEZ3IsC","standard","1","55","LP","30","465.455","495.473","495.723","30.268","0.25","3","165",""
"56","R_1QMFmau8pEZ3IsC","standard","1","56","LP","2.15079707022835","496.73","498.887","499.218","2.488","0.331","3","168",""
"57","R_1QMFmau8pEZ3IsC","standard","1","57","LP","0.661783713916415","500.221","500.891","501.264","1.043","0.373","3","171",""
"58","R_1QMFmau8pEZ3IsC","standard","1","58","LP","2.15079707022835","502.282","504.435","504.851","2.569","0.416","3","174",""
"59","R_1QMFmau8pEZ3IsC","standard","1","59","LP","13.0392072382594","505.873","518.914","519.249","13.376","0.335","3","177",""
"60","R_1QMFmau8pEZ3IsC","standard","1","60","LP","1.25738905644119","520.258","521.527","521.907","1.649","0.38","3","180",""
"61","R_1QMFmau8pEZ3IsC","standard","1","61","LP","1.25738905644119","522.915","524.192","524.514","1.599","0.322","3","183",""
"62","R_1QMFmau8pEZ3IsC","standard","1","62","LP","19.8235243429556","525.527","545.355","545.729","20.202","0.374","3","186",""
"63","R_1QMFmau8pEZ3IsC","standard","1","63","LP","8.51632916846187","546.732","555.265","555.624","8.892","0.359","3","189",""
"64","R_1QMFmau8pEZ3IsC","standard","1","64","LP","13.0392072382594","556.626","569.671","569.995","13.369","0.324","3","192",""
"65","R_1QMFmau8pEZ3IsC","standard","1","65","LP","2.15079707022835","571.002","573.158","573.57","2.568","0.412","3","195",""
"66","R_1QMFmau8pEZ3IsC","standard","1","66","LP","5.5010771219302","574.579","580.083","580.446","5.867","0.363","3","198",""
"67","R_1QMFmau8pEZ3IsC","standard","1","67","LP","13.0392072382594","581.462","594.512","594.845","13.383","0.333","3","201",""
"68","R_1QMFmau8pEZ3IsC","standard","1","68","LP","2.15079707022835","595.85","598.012","598.355","2.505","0.343","3","204",""
"69","R_1QMFmau8pEZ3IsC","standard","1","69","LP","0.264713485566566","599.363","599.634","600.019","0.656","0.385","3","207",""
"70","R_1QMFmau8pEZ3IsC","standard","1","70","LP","8.51632916846187","601.024","609.541","609.95","8.926","0.409","3","210",""
"71","R_1QMFmau8pEZ3IsC","standard","1","71","LP","1.25738905644119","610.958","612.221","612.606","1.648","0.385","3","213",""
"72","R_1QMFmau8pEZ3IsC","standard","1","72","LP","3.49090909090909","613.624","617.127","617.453","3.829","0.326","3","216",""
"73","R_1QMFmau8pEZ3IsC","standard","1","73","LP","30","618.471","648.478","648.807","30.336","0.329","3","219",""
"74","R_1QMFmau8pEZ3IsC","standard","1","74","LP","5.5010771219302","649.816","655.329","655.703","5.887","0.374","3","222",""
"75","R_1QMFmau8pEZ3IsC","standard","1","75","LP","2.15079707022835","656.718","658.875","659.278","2.56","0.403","3","225",""
"76","R_1QMFmau8pEZ3IsC","standard","1","76","LP","3.49090909090909","660.284","663.779","664.13","3.846","0.351","3","228",""
"77","R_1QMFmau8pEZ3IsC","standard","1","77","LP","5.5010771219302","665.141","670.662","671.037","5.896","0.375","3","231",""
"78","R_1QMFmau8pEZ3IsC","standard","1","78","LP","1.25738905644119","672.041","673.311","673.689","1.648","0.378","3","234",""
"79","R_1QMFmau8pEZ3IsC","standard","1","79","LP","13.0392072382594","674.701","687.741","688.124","13.423","0.383","3","237",""
"80","R_1QMFmau8pEZ3IsC","standard","1","80","LP","1.25738905644119","689.141","690.402","690.787","1.646","0.385","3","240",""
"81","R_1QMFmau8pEZ3IsC","standard","1","81","LP","30","691.794","721.813","722.143","30.349","0.33","3","243",""
"82","R_1QMFmau8pEZ3IsC","standard","1","82","LP","3.49090909090909","723.157","726.654","727.017","3.86","0.363","3","246",""
"83","R_1QMFmau8pEZ3IsC","standard","1","83","LP","5.5010771219302","728.023","733.533","733.932","5.909","0.399","3","249",""
"84","R_1QMFmau8pEZ3IsC","standard","1","84","LP","13.0392072382594","734.953","747.994","748.35","13.397","0.356","3","252",""
"85","R_1QMFmau8pEZ3IsC","standard","1","85","LP","13.0392072382594","749.355","762.41","762.785","13.43","0.375","3","255",""
"86","R_1QMFmau8pEZ3IsC","standard","1","86","LP","19.8235243429556","763.799","783.624","784.001","20.202","0.377","3","258",""
"87","R_1QMFmau8pEZ3IsC","standard","1","87","LP","5.5010771219302","785.012","790.514","790.922","5.91","0.408","3","261",""
"88","R_1QMFmau8pEZ3IsC","standard","1","88","LP","3.49090909090909","791.931","795.425","795.799","3.868","0.374","3","264",""
"89","R_1QMFmau8pEZ3IsC","standard","1","89","LP","2.15079707022835","796.813","798.97","NA","3.166","NA","0","264",""
"90","R_1QMFmau8pEZ3IsC","standard","1","90","LP","2.15079707022835","800.987","803.15","803.697","2.71","0.547","3","267",""
"91","R_1QMFmau8pEZ3IsC","standard","1","91","LP","13.0392072382594","804.699","817.749","818.111","13.412","0.362","3","270",""
"92","R_1QMFmau8pEZ3IsC","standard","1","92","LP","30","819.121","849.131","849.495","30.374","0.364","3","273",""
"93","R_1QMFmau8pEZ3IsC","standard","1","93","LP","1.25738905644119","850.511","851.771","852.248","1.737","0.477","3","276",""
"94","R_1QMFmau8pEZ3IsC","standard","1","94","LP","3.49090909090909","853.251","856.746","857.106","3.855","0.36","3","279",""
"95","R_1QMFmau8pEZ3IsC","standard","1","95","LP","3.49090909090909","858.107","861.611","861.953","3.846","0.342","3","282",""
"96","R_1QMFmau8pEZ3IsC","standard","1","96","LP","0.661783713916415","862.955","863.622","864.065","1.11","0.443","3","285",""
"97","R_1QMFmau8pEZ3IsC","standard","1","97","LP","0.661783713916415","865.078","865.74","866.127","1.049","0.387","3","288",""
"98","R_1QMFmau8pEZ3IsC","standard","1","98","LP","30","867.141","897.149","897.437","30.296","0.288","3","291",""
"99","R_1QMFmau8pEZ3IsC","standard","2","1","LP","8.51632916846187","0","NaN","6.269","6.269","NaN","0","291",NA
"100","R_1QMFmau8pEZ3IsC","standard","2","2","LP","0.661783713916415","7.275","7.94","8.299","1.024","0.359","3","294",NA
"101","R_1QMFmau8pEZ3IsC","standard","2","3","LP","8.51632916846187","9.311","NaN","16.634","7.323","NaN","0","294",NA
"102","R_1QMFmau8pEZ3IsC","standard","2","4","LP","2.15079707022835","17.636","19.797","20.212","2.576","0.415","3","297",NA
"103","R_1QMFmau8pEZ3IsC","standard","2","5","LP","1.25738905644119","21.22","22.484","22.98","1.76","0.496","3","300",NA
"104","R_1QMFmau8pEZ3IsC","standard","2","6","LP","19.8235243429556","23.988","NaN","28.897","4.909","NaN","0","300",NA
"105","R_1QMFmau8pEZ3IsC","standard","2","7","LP","2.15079707022835","29.905","32.06","32.408","2.503","0.348","3","303",NA
"106","R_1QMFmau8pEZ3IsC","standard","2","8","LP","5.5010771219302","33.414","38.931","39.28","5.866","0.349","3","306",NA
"107","R_1QMFmau8pEZ3IsC","standard","2","9","LP","8.51632916846187","40.285","NaN","46.105","5.82","NaN","0","306",NA
"108","R_1QMFmau8pEZ3IsC","standard","2","10","LP","0.661783713916415","47.108","47.773","48.119","1.011","0.346","3","309",NA
"109","R_1QMFmau8pEZ3IsC","standard","2","11","LP","30","49.124","NaN","56.088","6.964","NaN","0","309",NA
"110","R_1QMFmau8pEZ3IsC","standard","2","12","LP","19.8235243429556","57.092","NaN","64.83","7.738","NaN","0","309",NA
"111","R_1QMFmau8pEZ3IsC","standard","2","13","LP","0.661783713916415","65.844","66.508","66.879","1.035","0.371","3","312",NA
"112","R_1QMFmau8pEZ3IsC","standard","2","14","LP","13.0392072382594","67.884","NaN","75.301","7.417","NaN","0","312",NA
"113","R_1QMFmau8pEZ3IsC","standard","2","15","LP","5.5010771219302","76.308","81.809","82.243","5.935","0.434","3","315",NA
"114","R_1QMFmau8pEZ3IsC","standard","2","16","LP","30","83.254","NaN","90.16","6.906","NaN","0","315",NA
"115","R_1QMFmau8pEZ3IsC","standard","2","17","LP","19.8235243429556","91.164","NaN","99.395","8.231","NaN","0","315",NA
"116","R_1QMFmau8pEZ3IsC","standard","2","18","LP","2.15079707022835","100.409","102.564","102.929","2.52","0.365","3","318",NA
"117","R_1QMFmau8pEZ3IsC","standard","2","19","LP","2.15079707022835","103.933","106.107","106.47","2.537","0.363","3","321",NA
"118","R_1QMFmau8pEZ3IsC","standard","2","20","LP","2.15079707022835","107.477","109.632","109.956","2.479","0.324","3","324",NA
"119","R_1QMFmau8pEZ3IsC","standard","2","21","LP","3.49090909090909","110.967","NaN","113.475","2.508","NaN","0","324",NA
"120","R_1QMFmau8pEZ3IsC","standard","2","22","LP","19.8235243429556","114.476","NaN","117.19","2.714","NaN","0","324",NA
"121","R_1QMFmau8pEZ3IsC","standard","2","23","LP","0.661783713916415","118.196","118.86","119.212","1.016","0.352","3","327",NA
"122","R_1QMFmau8pEZ3IsC","standard","2","24","LP","1.25738905644119","120.212","121.475","121.81","1.598","0.335","3","330",NA
"123","R_1QMFmau8pEZ3IsC","standard","2","25","LP","0.264713485566566","122.826","123.094","123.577","0.751","0.483","3","333",NA
"124","R_1QMFmau8pEZ3IsC","standard","2","26","LP","2.15079707022835","124.58","126.736","126.9","2.32","0.164","3","336",NA
"125","R_1QMFmau8pEZ3IsC","standard","2","27","LP","1.25738905644119","127.907","129.172","129.51","1.603","0.338","3","339",NA
"126","R_1QMFmau8pEZ3IsC","standard","2","28","LP","0.661783713916415","130.53","131.196","131.529","0.999","0.333","3","342",NA
"127","R_1QMFmau8pEZ3IsC","standard","2","29","LP","0.661783713916415","132.531","133.195","133.541","1.01","0.346","3","345",NA
"128","R_1QMFmau8pEZ3IsC","standard","2","30","LP","5.5010771219302","134.547","NaN","136.708","2.161","NaN","0","345",NA
"129","R_1QMFmau8pEZ3IsC","standard","2","31","LP","3.49090909090909","137.709","NaN","139.606","1.897","NaN","0","345",NA
"130","R_1QMFmau8pEZ3IsC","standard","2","32","LP","2.15079707022835","140.612","142.764","142.814","2.202","0.05","3","348",NA
"131","R_1QMFmau8pEZ3IsC","standard","2","33","LP","30","143.821","NaN","145.657","1.836","NaN","0","348",NA
"132","R_1QMFmau8pEZ3IsC","standard","2","34","LP","2.15079707022835","146.66","NaN","148.662","2.002","NaN","0","348",NA
"133","R_1QMFmau8pEZ3IsC","standard","2","35","LP","13.0392072382594","149.675","NaN","152.035","2.36","NaN","0","348",NA
"134","R_1QMFmau8pEZ3IsC","standard","2","36","LP","2.15079707022835","153.052","NaN","155.047","1.995","NaN","0","348",NA
"135","R_1QMFmau8pEZ3IsC","standard","2","37","LP","5.5010771219302","156.049","NaN","158.029","1.98","NaN","0","348",NA
"136","R_1QMFmau8pEZ3IsC","standard","2","38","LP","8.51632916846187","159.048","NaN","160.772","1.724","NaN","0","348",NA
"137","R_1QMFmau8pEZ3IsC","standard","2","39","LP","5.5010771219302","161.79","NaN","164.188","2.398","NaN","0","348",NA
"138","R_1QMFmau8pEZ3IsC","standard","2","40","LP","3.49090909090909","165.199","NaN","167.756","2.557","NaN","0","348",NA
"139","R_1QMFmau8pEZ3IsC","standard","2","41","LP","13.0392072382594","168.763","NaN","172.622","3.859","NaN","0","348",NA
"140","R_1QMFmau8pEZ3IsC","standard","2","42","LP","8.51632916846187","173.632","NaN","177.764","4.132","NaN","0","348",NA
"141","R_1QMFmau8pEZ3IsC","standard","2","43","LP","2.15079707022835","178.772","180.924","181.214","2.442","0.29","3","351",NA
"142","R_1QMFmau8pEZ3IsC","standard","2","44","LP","0.264713485566566","182.224","182.492","182.831","0.607","0.339","3","354",NA
"143","R_1QMFmau8pEZ3IsC","standard","2","45","LP","30","183.837","NaN","188.218","4.381","NaN","0","354",NA
"144","R_1QMFmau8pEZ3IsC","standard","2","46","LP","5.5010771219302","189.232","NaN","192.02","2.788","NaN","0","354",NA
"145","R_1QMFmau8pEZ3IsC","standard","2","47","LP","13.0392072382594","193.032","NaN","199.047","6.015","NaN","0","354",NA
"146","R_1QMFmau8pEZ3IsC","standard","2","48","LP","0.264713485566566","200.052","200.326","200.685","0.633","0.359","3","357",NA
"147","R_1QMFmau8pEZ3IsC","standard","2","49","LP","8.51632916846187","201.691","NaN","204.035","2.344","NaN","0","357",NA
"148","R_1QMFmau8pEZ3IsC","standard","2","50","LP","1.25738905644119","205.044","206.308","206.654","1.61","0.346","3","360",NA
"149","R_1QMFmau8pEZ3IsC","standard","2","51","LP","5.5010771219302","207.66","NaN","210.325","2.665","NaN","0","360",NA
"150","R_1QMFmau8pEZ3IsC","standard","2","52","LP","5.5010771219302","211.332","NaN","215.135","3.803","NaN","0","360",NA
"151","R_1QMFmau8pEZ3IsC","standard","2","53","LP","2.15079707022835","216.14","218.305","218.597","2.457","0.292","3","363",NA
"152","R_1QMFmau8pEZ3IsC","standard","2","54","LP","0.264713485566566","219.603","219.875","220.221","0.618","0.346","3","366",NA
"153","R_1QMFmau8pEZ3IsC","standard","2","55","LP","1.25738905644119","221.227","222.496","222.829","1.602","0.333","3","369",NA
"154","R_1QMFmau8pEZ3IsC","standard","2","56","LP","5.5010771219302","223.848","NaN","227.064","3.216","NaN","0","369",NA
"155","R_1QMFmau8pEZ3IsC","standard","2","57","LP","19.8235243429556","228.068","NaN","231.205","3.137","NaN","0","369",NA
"156","R_1QMFmau8pEZ3IsC","standard","2","58","LP","8.51632916846187","232.218","NaN","235.456","3.238","NaN","0","369",NA
"157","R_1QMFmau8pEZ3IsC","standard","2","59","LP","13.0392072382594","236.459","NaN","238.8","2.341","NaN","0","369",NA
"158","R_1QMFmau8pEZ3IsC","standard","2","60","LP","30","239.819","NaN","243.126","3.307","NaN","0","369",NA
"159","R_1QMFmau8pEZ3IsC","standard","2","61","LP","30","244.14","NaN","247.631","3.491","NaN","0","369",NA
"160","R_1QMFmau8pEZ3IsC","standard","2","62","LP","3.49090909090909","248.648","252.148","252.484","3.836","0.336","3","372",NA
"161","R_1QMFmau8pEZ3IsC","standard","2","63","LP","30","253.506","NaN","257.038","3.532","NaN","0","372",NA
"162","R_1QMFmau8pEZ3IsC","standard","2","64","LP","0.661783713916415","258.043","258.707","259.062","1.019","0.355","3","375",NA
"163","R_1QMFmau8pEZ3IsC","standard","2","65","LP","1.25738905644119","260.067","261.33","261.632","1.565","0.302","3","378",NA
"164","R_1QMFmau8pEZ3IsC","standard","2","66","LP","0.264713485566566","262.636","262.908","263.312","0.676","0.404","3","381",NA
"165","R_1QMFmau8pEZ3IsC","standard","2","67","LP","13.0392072382594","264.316","NaN","267.762","3.446","NaN","0","381",NA
"166","R_1QMFmau8pEZ3IsC","standard","2","68","LP","8.51632916846187","268.766","NaN","273.084","4.318","NaN","0","381",NA
"167","R_1QMFmau8pEZ3IsC","standard","2","69","LP","13.0392072382594","274.092","NaN","278.361","4.269","NaN","0","381",NA
"168","R_1QMFmau8pEZ3IsC","standard","2","70","LP","13.0392072382594","279.376","NaN","282.746","3.37","NaN","0","381",NA
"169","R_1QMFmau8pEZ3IsC","standard","2","71","LP","3.49090909090909","283.748","NaN","286.946","3.198","NaN","0","381",NA
"170","R_1QMFmau8pEZ3IsC","standard","2","72","LP","3.49090909090909","287.947","291.447","291.751","3.804","0.304","3","384",NA
"171","R_1QMFmau8pEZ3IsC","standard","2","73","LP","30","292.757","NaN","296.174","3.417","NaN","0","384",NA
"172","R_1QMFmau8pEZ3IsC","standard","2","74","LP","19.8235243429556","297.179","NaN","303.005","5.826","NaN","0","384",NA
"173","R_1QMFmau8pEZ3IsC","standard","2","75","LP","2.15079707022835","304.017","306.172","306.49","2.473","0.318","3","387",NA
"174","R_1QMFmau8pEZ3IsC","standard","2","76","LP","0.661783713916415","307.491","308.169","308.48","0.989","0.311","3","390",NA
"175","R_1QMFmau8pEZ3IsC","standard","2","77","LP","1.25738905644119","309.495","310.763","311.088","1.593","0.325","3","393",NA
"176","R_1QMFmau8pEZ3IsC","standard","2","78","LP","19.8235243429556","312.092","NaN","317.068","4.976","NaN","0","393",NA
"177","R_1QMFmau8pEZ3IsC","standard","2","79","LP","19.8235243429556","318.075","NaN","323.894","5.819","NaN","0","393",NA
"178","R_1QMFmau8pEZ3IsC","standard","2","80","LP","3.49090909090909","324.899","328.402","328.693","3.794","0.291","3","396",NA
"179","R_1QMFmau8pEZ3IsC","standard","2","81","LP","0.264713485566566","329.7","329.977","330.303","0.603","0.326","3","399",NA
"180","R_1QMFmau8pEZ3IsC","standard","2","82","LP","3.49090909090909","331.308","334.81","335.168","3.86","0.358","3","402",NA
"181","R_1QMFmau8pEZ3IsC","standard","2","83","LP","0.264713485566566","336.183","336.447","336.79","0.607","0.343","3","405",NA
"182","R_1QMFmau8pEZ3IsC","standard","2","84","LP","1.25738905644119","337.803","339.067","339.355","1.552","0.288","3","408",NA
"183","R_1QMFmau8pEZ3IsC","standard","2","85","LP","13.0392072382594","340.37","NaN","344.669","4.299","NaN","0","408",NA
"184","R_1QMFmau8pEZ3IsC","standard","2","86","LP","2.15079707022835","345.676","347.827","348.178","2.502","0.351","3","411",NA
"185","R_1QMFmau8pEZ3IsC","standard","2","87","LP","2.15079707022835","349.191","351.348","351.67","2.479","0.322","3","414",NA
"186","R_1QMFmau8pEZ3IsC","standard","2","88","LP","5.5010771219302","352.675","NaN","356.479","3.804","NaN","0","414",NA
"187","R_1QMFmau8pEZ3IsC","standard","2","89","LP","19.8235243429556","357.483","NaN","361.187","3.704","NaN","0","414",NA
"188","R_1QMFmau8pEZ3IsC","standard","2","90","LP","3.49090909090909","362.187","365.683","365.959","3.772","0.276","3","417",NA
"189","R_1QMFmau8pEZ3IsC","standard","2","91","LP","3.49090909090909","366.976","370.47","370.655","3.679","0.185","3","420",NA
"190","R_1QMFmau8pEZ3IsC","standard","2","92","LP","13.0392072382594","371.672","NaN","376.155","4.483","NaN","0","420",NA
"191","R_1QMFmau8pEZ3IsC","standard","2","93","LP","19.8235243429556","377.172","NaN","382.043","4.871","NaN","0","420",NA
"192","R_1QMFmau8pEZ3IsC","standard","2","94","LP","8.51632916846187","383.048","NaN","388.188","5.14","NaN","0","420",NA
"193","R_1QMFmau8pEZ3IsC","standard","2","95","LP","13.0392072382594","389.195","NaN","394.312","5.117","NaN","0","420",NA
"194","R_1QMFmau8pEZ3IsC","standard","2","96","LP","0.661783713916415","395.319","395.988","396.295","0.976","0.307","3","423",NA
"195","R_1QMFmau8pEZ3IsC","standard","2","97","LP","0.264713485566566","397.309","397.59","397.875","0.566","0.285","3","426",NA
"196","R_1QMFmau8pEZ3IsC","standard","2","98","LP","13.0392072382594","398.884","NaN","404.857","5.973","NaN","0","426",NA
"197","R_1QMFmau8pEZ3IsC","standard","2","99","LP","2.15079707022835","405.859","408.025","408.355","2.496","0.33","3","429",NA
"198","R_1QMFmau8pEZ3IsC","standard","2","100","LP","30","409.36","NaN","413.859","4.499","NaN","0","429",NA
"199","R_1QMFmau8pEZ3IsC","standard","2","101","LP","1.25738905644119","414.86","416.127","416.484","1.624","0.357","3","432",NA
"200","R_1QMFmau8pEZ3IsC","standard","2","102","LP","0.661783713916415","417.491","418.167","418.509","1.018","0.342","3","435",NA
"201","R_1QMFmau8pEZ3IsC","standard","2","103","LP","0.661783713916415","419.519","420.2","420.506","0.987","0.306","3","438",NA
"202","R_1QMFmau8pEZ3IsC","standard","2","104","LP","2.15079707022835","421.517","423.688","424.033","2.516","0.345","3","441",NA
"203","R_1QMFmau8pEZ3IsC","standard","2","105","LP","1.25738905644119","425.036","426.3","426.652","1.616","0.352","3","444",NA
"204","R_1QMFmau8pEZ3IsC","standard","2","106","LP","8.51632916846187","427.66","NaN","432.341","4.681","NaN","0","444",NA
"205","R_1QMFmau8pEZ3IsC","standard","2","107","LP","19.8235243429556","433.348","NaN","437.104","3.756","NaN","0","444",NA
"206","R_1QMFmau8pEZ3IsC","standard","2","108","LP","3.49090909090909","438.108","441.607","441.966","3.858","0.359","3","447",NA
"207","R_1QMFmau8pEZ3IsC","standard","2","109","LP","2.15079707022835","442.984","445.14","445.427","2.443","0.287","3","450",NA
"208","R_1QMFmau8pEZ3IsC","standard","2","110","LP","8.51632916846187","446.428","NaN","451.626","5.198","NaN","0","450",NA
"209","R_1QMFmau8pEZ3IsC","standard","2","111","LP","30","452.634","NaN","458.034","5.4","NaN","0","450",NA
"210","R_1QMFmau8pEZ3IsC","standard","2","112","LP","2.15079707022835","459.037","461.188","461.492","2.455","0.304","3","453",NA
"211","R_1QMFmau8pEZ3IsC","standard","2","113","LP","1.25738905644119","462.502","463.775","464.101","1.599","0.326","3","456",NA
"212","R_1QMFmau8pEZ3IsC","standard","2","114","LP","5.5010771219302","465.108","NaN","469.534","4.426","NaN","0","456",NA
"213","R_1QMFmau8pEZ3IsC","standard","2","115","LP","0.264713485566566","470.546","470.824","471.208","0.662","0.384","3","459",NA
"214","R_1QMFmau8pEZ3IsC","standard","2","116","LP","13.0392072382594","472.218","NaN","476.727","4.509","NaN","0","459",NA
"215","R_1QMFmau8pEZ3IsC","standard","2","117","LP","8.51632916846187","477.739","NaN","482.043","4.304","NaN","0","459",NA
"216","R_1QMFmau8pEZ3IsC","standard","2","118","LP","5.5010771219302","483.048","NaN","487.048","4","NaN","0","459",NA
"217","R_1QMFmau8pEZ3IsC","standard","2","119","LP","1.25738905644119","488.061","489.331","489.685","1.624","0.354","3","462",NA
"218","R_1QMFmau8pEZ3IsC","standard","2","120","LP","2.15079707022835","490.705","492.863","493.189","2.484","0.326","3","465",NA
"219","R_1QMFmau8pEZ3IsC","standard","2","121","LP","2.15079707022835","494.207","496.366","496.699","2.492","0.333","3","468",NA
"220","R_1QMFmau8pEZ3IsC","standard","2","122","LP","5.5010771219302","497.707","NaN","502.396","4.689","NaN","0","468",NA
"221","R_1QMFmau8pEZ3IsC","standard","2","123","LP","1.25738905644119","503.405","504.676","505.007","1.602","0.331","3","471",NA
"222","R_1QMFmau8pEZ3IsC","standard","2","124","LP","1.25738905644119","506.016","507.281","507.617","1.601","0.336","3","474",NA
"223","R_1QMFmau8pEZ3IsC","standard","2","125","LP","0.264713485566566","508.625","508.892","509.258","0.633","0.366","3","477",NA
"224","R_1QMFmau8pEZ3IsC","standard","2","126","LP","0.661783713916415","510.26","510.932","511.279","1.019","0.347","3","480",NA
"225","R_1QMFmau8pEZ3IsC","standard","2","127","LP","0.661783713916415","512.283","512.948","513.278","0.995","0.33","3","483",NA
"226","R_1QMFmau8pEZ3IsC","standard","2","128","LP","2.15079707022835","514.286","516.444","516.833","2.547","0.389","3","486",NA
"227","R_1QMFmau8pEZ3IsC","standard","2","129","LP","2.15079707022835","517.84","520.001","520.312","2.472","0.311","3","489",NA
"228","R_1QMFmau8pEZ3IsC","standard","2","130","LP","0.661783713916415","521.315","521.983","522.33","1.015","0.347","3","492",NA
"229","R_1QMFmau8pEZ3IsC","standard","2","131","LP","19.8235243429556","523.338","NaN","528.04","4.702","NaN","0","492",NA
"230","R_1QMFmau8pEZ3IsC","standard","2","132","LP","30","529.044","NaN","532.941","3.897","NaN","0","492",NA
"231","R_1QMFmau8pEZ3IsC","standard","2","133","LP","3.49090909090909","533.948","537.443","537.808","3.86","0.365","3","495",NA
"232","R_1QMFmau8pEZ3IsC","standard","2","134","LP","30","538.812","NaN","543.046","4.234","NaN","0","495",NA
"233","R_1QMFmau8pEZ3IsC","standard","2","135","LP","1.25738905644119","544.052","545.33","545.662","1.61","0.332","3","498",NA
"234","R_1QMFmau8pEZ3IsC","standard","2","136","LP","2.15079707022835","546.681","548.834","549.177","2.496","0.343","3","501",NA
"235","R_1QMFmau8pEZ3IsC","standard","2","137","LP","1.25738905644119","550.188","551.448","551.766","1.578","0.318","3","504",NA
"236","R_1QMFmau8pEZ3IsC","standard","2","138","LP","19.8235243429556","552.78","NaN","558.115","5.335","NaN","0","504",NA
"237","R_1QMFmau8pEZ3IsC","standard","2","139","LP","2.15079707022835","559.126","561.299","561.606","2.48","0.307","3","507",NA
"238","R_1QMFmau8pEZ3IsC","standard","2","140","LP","8.51632916846187","562.624","NaN","568.287","5.663","NaN","0","507",NA
"239","R_1QMFmau8pEZ3IsC","standard","2","141","LP","0.264713485566566","569.292","569.572","569.953","0.661","0.381","3","510",NA
"240","R_1QMFmau8pEZ3IsC","standard","2","142","LP","19.8235243429556","570.955","NaN","575.605","4.65","NaN","0","510",NA
"241","R_1QMFmau8pEZ3IsC","standard","2","143","LP","0.661783713916415","576.617","577.295","577.674","1.057","0.379","3","513",NA
"242","R_1QMFmau8pEZ3IsC","standard","2","144","LP","2.15079707022835","578.675","580.831","581.124","2.449","0.293","3","516",NA
"243","R_1QMFmau8pEZ3IsC","standard","2","145","LP","2.15079707022835","582.142","584.3","584.722","2.58","0.422","3","519",NA
"244","R_1QMFmau8pEZ3IsC","standard","2","146","LP","2.15079707022835","585.725","587.884","588.18","2.455","0.296","3","522",NA
"245","R_1QMFmau8pEZ3IsC","standard","2","147","LP","2.15079707022835","589.202","591.358","591.77","2.568","0.412","3","525",NA
"246","R_1QMFmau8pEZ3IsC","standard","2","148","LP","0.661783713916415","592.772","593.436","593.823","1.051","0.387","3","528",NA
"247","R_1QMFmau8pEZ3IsC","standard","2","149","LP","3.49090909090909","594.84","598.344","598.679","3.839","0.335","3","531",NA
