"","subject_id","condition","n_block","n_trialIdx","f_timing_condition","n_scheduled_delay","n_trial_start_time","n_rewarded_time_fin","n_sell_time_fin","n_time_waited_fin","RT_fin","n_trial_earnings_fin","n_total_earnings_fin","keypress_times"
"1","R_1QuWL6R52hgrLc3","standard","1","1","LP","8.51632916846187","0.006","8.53","9.25","9.244","0.72","3","3",""
"2","R_1QuWL6R52hgrLc3","standard","1","2","LP","19.8235243429556","10.256","30.089","30.733","20.477","0.644","3","6",""
"3","R_1QuWL6R52hgrLc3","standard","1","3","LP","30","31.742","61.764","62.459","30.717","0.695","3","9",""
"4","R_1QuWL6R52hgrLc3","standard","1","4","LP","30","63.475","93.478","94.281","30.806","0.803","3","12",""
"5","R_1QuWL6R52hgrLc3","standard","1","5","LP","19.8235243429556","95.291","115.117","115.882","20.591","0.765","3","15",""
"6","R_1QuWL6R52hgrLc3","standard","1","6","LP","2.15079707022835","116.89","119.042","NA","3.16","NA","0","15",""
"7","R_1QuWL6R52hgrLc3","standard","1","7","LP","19.8235243429556","121.057","140.885","141.778","20.721","0.893","3","18",""
"8","R_1QuWL6R52hgrLc3","standard","1","8","LP","0.264713485566566","142.949","143.214","NA","1.269","NA","0","18",""
"9","R_1QuWL6R52hgrLc3","standard","1","9","LP","19.8235243429556","145.237","165.065","165.712","20.475","0.647","3","21",""
"10","R_1QuWL6R52hgrLc3","standard","1","10","LP","30","166.722","196.723","197.397","30.675","0.674","3","24",""
"11","R_1QuWL6R52hgrLc3","standard","1","11","LP","0.264713485566566","198.438","198.705","199.123","0.685","0.418","3","27",""
"12","R_1QuWL6R52hgrLc3","standard","1","12","LP","0.264713485566566","200.126","200.394","201.21","1.084","0.816","3","30",""
"13","R_1QuWL6R52hgrLc3","standard","1","13","LP","2.15079707022835","202.213","204.37","NA","3.167","NA","0","30",""
"14","R_1QuWL6R52hgrLc3","standard","1","14","LP","3.49090909090909","206.388","209.883","210.838","4.45","0.955","3","33",""
"15","R_1QuWL6R52hgrLc3","standard","1","15","LP","1.25738905644119","211.843","213.108","213.932","2.089","0.824","3","36",""
"16","R_1QuWL6R52hgrLc3","standard","1","16","LP","0.661783713916415","214.942","215.61","216.317","1.375","0.707","3","39",""
"17","R_1QuWL6R52hgrLc3","standard","1","17","LP","2.15079707022835","217.322","219.473","220.086","2.764","0.613","3","42",""
"18","R_1QuWL6R52hgrLc3","standard","1","18","LP","8.51632916846187","221.09","229.61","230.354","9.264","0.744","3","45",""
"19","R_1QuWL6R52hgrLc3","standard","1","19","LP","3.49090909090909","231.376","234.933","235.632","4.256","0.699","3","48",""
"20","R_1QuWL6R52hgrLc3","standard","1","20","LP","8.51632916846187","236.64","245.162","245.754","9.114","0.592","3","51",""
"21","R_1QuWL6R52hgrLc3","standard","1","21","LP","8.51632916846187","246.762","255.282","255.892","9.13","0.61","3","54",""
"22","R_1QuWL6R52hgrLc3","standard","1","22","LP","8.51632916846187","256.899","265.421","266.125","9.226","0.704","3","57",""
"23","R_1QuWL6R52hgrLc3","standard","1","23","LP","3.49090909090909","267.13","270.623","271.301","4.171","0.678","3","60",""
"24","R_1QuWL6R52hgrLc3","standard","1","24","LP","30","272.307","302.34","302.962","30.655","0.622","3","63",""
"25","R_1QuWL6R52hgrLc3","standard","1","25","LP","5.5010771219302","303.971","309.495","310.474","6.503","0.979","3","66",""
"26","R_1QuWL6R52hgrLc3","standard","1","26","LP","1.25738905644119","311.571","312.834","313.532","1.961","0.698","3","69",""
"27","R_1QuWL6R52hgrLc3","standard","1","27","LP","13.0392072382594","314.536","327.622","328.416","13.88","0.794","3","72",""
"28","R_1QuWL6R52hgrLc3","standard","1","28","LP","0.661783713916415","329.42","330.142","330.829","1.409","0.687","3","75",""
"29","R_1QuWL6R52hgrLc3","standard","1","29","LP","0.661783713916415","331.837","332.507","333.239","1.402","0.732","3","78",""
"30","R_1QuWL6R52hgrLc3","standard","1","30","LP","2.15079707022835","334.245","336.404","337.141","2.896","0.737","3","81",""
"31","R_1QuWL6R52hgrLc3","standard","1","31","LP","0.264713485566566","338.147","338.413","339.198","1.051","0.785","3","84",""
"32","R_1QuWL6R52hgrLc3","standard","1","32","LP","3.49090909090909","340.205","343.701","344.326","4.121","0.625","3","87",""
"33","R_1QuWL6R52hgrLc3","standard","1","33","LP","2.15079707022835","345.331","347.485","348.253","2.922","0.768","3","90",""
"34","R_1QuWL6R52hgrLc3","standard","1","34","LP","0.264713485566566","349.257","349.619","350.487","1.23","0.868","3","93",""
"35","R_1QuWL6R52hgrLc3","standard","1","35","LP","0.264713485566566","351.493","351.764","352.716","1.223","0.952","3","96",""
"36","R_1QuWL6R52hgrLc3","standard","1","36","LP","30","353.723","383.735","384.488","30.765","0.753","3","99",""
"37","R_1QuWL6R52hgrLc3","standard","1","37","LP","1.25738905644119","385.494","386.757","387.412","1.918","0.655","3","102",""
"38","R_1QuWL6R52hgrLc3","standard","1","38","LP","5.5010771219302","388.414","393.918","394.664","6.25","0.746","3","105",""
"39","R_1QuWL6R52hgrLc3","standard","1","39","LP","19.8235243429556","395.686","415.523","416.307","20.621","0.784","3","108",""
"40","R_1QuWL6R52hgrLc3","standard","1","40","LP","0.264713485566566","417.371","417.73","418.819","1.448","1.089","3","111",""
"41","R_1QuWL6R52hgrLc3","standard","1","41","LP","3.49090909090909","419.836","423.334","424.285","4.449","0.951","3","114",""
"42","R_1QuWL6R52hgrLc3","standard","1","42","LP","0.661783713916415","425.304","425.974","426.849","1.545","0.875","3","117",""
"43","R_1QuWL6R52hgrLc3","standard","1","43","LP","0.264713485566566","427.854","428.123","428.834","0.98","0.711","3","120",""
"44","R_1QuWL6R52hgrLc3","standard","1","44","LP","1.25738905644119","429.84","431.101","431.754","1.914","0.653","3","123",""
"45","R_1QuWL6R52hgrLc3","standard","1","45","LP","8.51632916846187","432.759","441.42","442.26","9.501","0.84","3","126",""
"46","R_1QuWL6R52hgrLc3","standard","1","46","LP","0.661783713916415","443.271","443.941","444.766","1.495","0.825","3","129",""
"47","R_1QuWL6R52hgrLc3","standard","1","47","LP","19.8235243429556","445.77","465.608","466.369","20.599","0.761","3","132",""
"48","R_1QuWL6R52hgrLc3","standard","1","48","LP","13.0392072382594","467.501","480.557","481.319","13.818","0.762","3","135",""
"49","R_1QuWL6R52hgrLc3","standard","1","49","LP","2.15079707022835","482.4","484.614","485.619","3.219","1.005","3","138",""
"50","R_1QuWL6R52hgrLc3","standard","1","50","LP","30","486.624","516.63","517.374","30.75","0.744","3","141",""
"51","R_1QuWL6R52hgrLc3","standard","1","51","LP","0.264713485566566","518.383","518.677","519.493","1.11","0.816","3","144",""
"52","R_1QuWL6R52hgrLc3","standard","1","52","LP","5.5010771219302","520.502","526.005","526.669","6.167","0.664","3","147",""
"53","R_1QuWL6R52hgrLc3","standard","1","53","LP","3.49090909090909","527.679","531.184","532.03","4.351","0.846","3","150",""
"54","R_1QuWL6R52hgrLc3","standard","1","54","LP","30","533.059","563.062","563.686","30.627","0.624","3","153",""
"55","R_1QuWL6R52hgrLc3","standard","1","55","LP","13.0392072382594","564.696","577.939","578.654","13.958","0.715","3","156",""
"56","R_1QuWL6R52hgrLc3","standard","1","56","LP","30","579.664","609.671","610.578","30.914","0.907","3","159",""
"57","R_1QuWL6R52hgrLc3","standard","1","57","LP","13.0392072382594","611.583","624.632","625.372","13.789","0.74","3","162",""
"58","R_1QuWL6R52hgrLc3","standard","1","58","LP","5.5010771219302","626.376","631.881","632.604","6.228","0.723","3","165",""
"59","R_1QuWL6R52hgrLc3","standard","1","59","LP","2.15079707022835","633.608","635.779","636.469","2.861","0.69","3","168",""
"60","R_1QuWL6R52hgrLc3","standard","1","60","LP","19.8235243429556","637.472","657.304","658.012","20.54","0.708","3","171",""
"61","R_1QuWL6R52hgrLc3","standard","1","61","LP","19.8235243429556","659.017","678.848","679.531","20.514","0.683","3","174",""
"62","R_1QuWL6R52hgrLc3","standard","1","62","LP","19.8235243429556","680.538","700.372","701.335","20.797","0.963","3","177",""
"63","R_1QuWL6R52hgrLc3","standard","1","63","LP","13.0392072382594","702.345","715.392","716.153","13.808","0.761","3","180",""
"64","R_1QuWL6R52hgrLc3","standard","1","64","LP","13.0392072382594","717.161","730.208","730.899","13.738","0.691","3","183",""
"65","R_1QuWL6R52hgrLc3","standard","1","65","LP","1.25738905644119","731.908","733.167","733.994","2.086","0.827","3","186",""
"66","R_1QuWL6R52hgrLc3","standard","1","66","LP","3.49090909090909","735.001","738.498","739.226","4.225","0.728","3","189",""
"67","R_1QuWL6R52hgrLc3","standard","1","67","LP","5.5010771219302","740.232","745.763","746.509","6.277","0.746","3","192",""
"68","R_1QuWL6R52hgrLc3","standard","1","68","LP","8.51632916846187","747.514","756.033","756.692","9.178","0.659","3","195",""
"69","R_1QuWL6R52hgrLc3","standard","1","69","LP","1.25738905644119","757.747","759.008","759.963","2.216","0.955","3","198",""
"70","R_1QuWL6R52hgrLc3","standard","1","70","LP","19.8235243429556","760.97","780.8","781.594","20.624","0.794","3","201",""
"71","R_1QuWL6R52hgrLc3","standard","1","71","LP","0.264713485566566","782.601","782.873","783.87","1.269","0.997","3","204",""
"72","R_1QuWL6R52hgrLc3","standard","1","72","LP","8.51632916846187","784.881","793.401","794.208","9.327","0.807","3","207",""
"73","R_1QuWL6R52hgrLc3","standard","1","73","LP","19.8235243429556","795.22","815.05","815.749","20.529","0.699","3","210",""
"74","R_1QuWL6R52hgrLc3","standard","1","74","LP","1.25738905644119","816.756","818.039","818.936","2.18","0.897","3","213",""
"75","R_1QuWL6R52hgrLc3","standard","1","75","LP","30","819.942","849.987","850.795","30.853","0.808","3","216",""
"76","R_1QuWL6R52hgrLc3","standard","1","76","LP","0.264713485566566","851.802","852.075","852.939","1.137","0.864","3","219",""
"77","R_1QuWL6R52hgrLc3","standard","1","77","LP","3.49090909090909","853.942","857.434","858.258","4.316","0.824","3","222",""
"78","R_1QuWL6R52hgrLc3","standard","1","78","LP","1.25738905644119","859.266","860.526","861.234","1.968","0.708","3","225",""
"79","R_1QuWL6R52hgrLc3","standard","1","79","LP","2.15079707022835","862.24","864.395","865.186","2.946","0.791","3","228",""
"80","R_1QuWL6R52hgrLc3","standard","1","80","LP","19.8235243429556","866.196","886.051","886.96","20.764","0.909","3","231",""
"81","R_1QuWL6R52hgrLc3","standard","1","81","LP","3.49090909090909","887.964","891.46","892.154","4.19","0.694","3","234",""
"82","R_1QuWL6R52hgrLc3","standard","2","1","LP","3.49090909090909","0.001","3.497","4.189","4.188","0.692","3","237",NA
"83","R_1QuWL6R52hgrLc3","standard","2","2","LP","13.0392072382594","5.193","NaN","11.471","6.278","NaN","0","237",NA
"84","R_1QuWL6R52hgrLc3","standard","2","3","LP","13.0392072382594","12.481","NaN","18.321","5.84","NaN","0","237",NA
"85","R_1QuWL6R52hgrLc3","standard","2","4","LP","0.661783713916415","19.334","20.022","20.906","1.572","0.884","3","240",NA
"86","R_1QuWL6R52hgrLc3","standard","2","5","LP","8.51632916846187","21.91","NaN","24.2","2.29","NaN","0","240",NA
"87","R_1QuWL6R52hgrLc3","standard","2","6","LP","1.25738905644119","25.21","26.474","27.186","1.976","0.712","3","243",NA
"88","R_1QuWL6R52hgrLc3","standard","2","7","LP","8.51632916846187","28.194","NaN","31.024","2.83","NaN","0","243",NA
"89","R_1QuWL6R52hgrLc3","standard","2","8","LP","5.5010771219302","32.031","NaN","33.179","1.148","NaN","0","243",NA
"90","R_1QuWL6R52hgrLc3","standard","2","9","LP","3.49090909090909","34.217","NaN","35.254","1.037","NaN","0","243",NA
"91","R_1QuWL6R52hgrLc3","standard","2","10","LP","1.25738905644119","36.327","NaN","37.228","0.901","NaN","0","243",NA
"92","R_1QuWL6R52hgrLc3","standard","2","11","LP","30","38.236","NaN","42.427","4.191","NaN","0","243",NA
"93","R_1QuWL6R52hgrLc3","standard","2","12","LP","5.5010771219302","43.434","NaN","44.915","1.481","NaN","0","243",NA
"94","R_1QuWL6R52hgrLc3","standard","2","13","LP","0.264713485566566","45.922","46.195","46.924","1.002","0.729","3","246",NA
"95","R_1QuWL6R52hgrLc3","standard","2","14","LP","13.0392072382594","47.938","NaN","50.131","2.193","NaN","0","246",NA
"96","R_1QuWL6R52hgrLc3","standard","2","15","LP","1.25738905644119","51.14","52.401","53.06","1.92","0.659","3","249",NA
"97","R_1QuWL6R52hgrLc3","standard","2","16","LP","2.15079707022835","54.066","56.218","56.494","2.428","0.276","3","252",NA
"98","R_1QuWL6R52hgrLc3","standard","2","17","LP","13.0392072382594","57.498","NaN","61.039","3.541","NaN","0","252",NA
"99","R_1QuWL6R52hgrLc3","standard","2","18","LP","3.49090909090909","62.042","65.539","65.956","3.914","0.417","3","255",NA
"100","R_1QuWL6R52hgrLc3","standard","2","19","LP","1.25738905644119","66.962","68.226","69.095","2.133","0.869","3","258",NA
"101","R_1QuWL6R52hgrLc3","standard","2","20","LP","8.51632916846187","70.098","NaN","73.394","3.296","NaN","0","258",NA
"102","R_1QuWL6R52hgrLc3","standard","2","21","LP","8.51632916846187","74.402","NaN","77.448","3.046","NaN","0","258",NA
"103","R_1QuWL6R52hgrLc3","standard","2","22","LP","0.264713485566566","78.451","78.729","79.455","1.004","0.726","3","261",NA
"104","R_1QuWL6R52hgrLc3","standard","2","23","LP","19.8235243429556","80.461","NaN","84.697","4.236","NaN","0","261",NA
"105","R_1QuWL6R52hgrLc3","standard","2","24","LP","0.264713485566566","85.709","85.978","86.805","1.096","0.827","3","264",NA
"106","R_1QuWL6R52hgrLc3","standard","2","25","LP","8.51632916846187","87.816","NaN","91.369","3.553","NaN","0","264",NA
"107","R_1QuWL6R52hgrLc3","standard","2","26","LP","0.661783713916415","92.402","93.128","94.149","1.747","1.021","3","267",NA
"108","R_1QuWL6R52hgrLc3","standard","2","27","LP","19.8235243429556","95.16","NaN","99.409","4.249","NaN","0","267",NA
"109","R_1QuWL6R52hgrLc3","standard","2","28","LP","1.25738905644119","100.414","101.675","102.455","2.041","0.78","3","270",NA
"110","R_1QuWL6R52hgrLc3","standard","2","29","LP","0.264713485566566","103.461","103.746","104.591","1.13","0.845","3","273",NA
"111","R_1QuWL6R52hgrLc3","standard","2","30","LP","30","105.594","NaN","110.277","4.683","NaN","0","273",NA
"112","R_1QuWL6R52hgrLc3","standard","2","31","LP","8.51632916846187","111.282","NaN","113.356","2.074","NaN","0","273",NA
"113","R_1QuWL6R52hgrLc3","standard","2","32","LP","0.661783713916415","114.362","115.026","115.684","1.322","0.658","3","276",NA
"114","R_1QuWL6R52hgrLc3","standard","2","33","LP","8.51632916846187","116.691","NaN","117.373","0.682","NaN","0","276",NA
"115","R_1QuWL6R52hgrLc3","standard","2","34","LP","2.15079707022835","118.379","NaN","120.22","1.841","NaN","0","276",NA
"116","R_1QuWL6R52hgrLc3","standard","2","35","LP","0.264713485566566","121.227","121.498","121.841","0.614","0.343","3","279",NA
"117","R_1QuWL6R52hgrLc3","standard","2","36","LP","13.0392072382594","122.85","NaN","124.413","1.563","NaN","0","279",NA
"118","R_1QuWL6R52hgrLc3","standard","2","37","LP","0.661783713916415","125.418","126.084","126.137","0.719","0.053","3","282",NA
"119","R_1QuWL6R52hgrLc3","standard","2","38","LP","1.25738905644119","127.148","NaN","128.036","0.888","NaN","0","282",NA
"120","R_1QuWL6R52hgrLc3","standard","2","39","LP","5.5010771219302","129.046","NaN","130.893","1.847","NaN","0","282",NA
"121","R_1QuWL6R52hgrLc3","standard","2","40","LP","5.5010771219302","131.899","NaN","132.617","0.718","NaN","0","282",NA
"122","R_1QuWL6R52hgrLc3","standard","2","41","LP","19.8235243429556","133.623","NaN","135.308","1.685","NaN","0","282",NA
"123","R_1QuWL6R52hgrLc3","standard","2","42","LP","5.5010771219302","136.431","NaN","137.847","1.416","NaN","0","282",NA
"124","R_1QuWL6R52hgrLc3","standard","2","43","LP","0.661783713916415","138.865","139.537","140.362","1.497","0.825","3","285",NA
"125","R_1QuWL6R52hgrLc3","standard","2","44","LP","0.264713485566566","141.424","141.698","142.559","1.135","0.861","3","288",NA
"126","R_1QuWL6R52hgrLc3","standard","2","45","LP","30","143.61","NaN","144.688","1.078","NaN","0","288",NA
"127","R_1QuWL6R52hgrLc3","standard","2","46","LP","5.5010771219302","145.691","NaN","147.333","1.642","NaN","0","288",NA
"128","R_1QuWL6R52hgrLc3","standard","2","47","LP","13.0392072382594","148.34","NaN","149.807","1.467","NaN","0","288",NA
"129","R_1QuWL6R52hgrLc3","standard","2","48","LP","30","150.813","NaN","152.259","1.446","NaN","0","288",NA
"130","R_1QuWL6R52hgrLc3","standard","2","49","LP","0.661783713916415","153.295","153.963","154.472","1.177","0.509","3","291",NA
"131","R_1QuWL6R52hgrLc3","standard","2","50","LP","2.15079707022835","155.479","NaN","156.573","1.094","NaN","0","291",NA
"132","R_1QuWL6R52hgrLc3","standard","2","51","LP","2.15079707022835","157.579","NaN","159.088","1.509","NaN","0","291",NA
"133","R_1QuWL6R52hgrLc3","standard","2","52","LP","13.0392072382594","160.092","NaN","161.385","1.293","NaN","0","291",NA
"134","R_1QuWL6R52hgrLc3","standard","2","53","LP","2.15079707022835","162.398","NaN","163.922","1.524","NaN","0","291",NA
"135","R_1QuWL6R52hgrLc3","standard","2","54","LP","0.661783713916415","164.94","165.614","166.076","1.136","0.462","3","294",NA
"136","R_1QuWL6R52hgrLc3","standard","2","55","LP","13.0392072382594","167.083","NaN","167.849","0.766","NaN","0","294",NA
"137","R_1QuWL6R52hgrLc3","standard","2","56","LP","2.15079707022835","168.858","NaN","170.482","1.624","NaN","0","294",NA
"138","R_1QuWL6R52hgrLc3","standard","2","57","LP","19.8235243429556","171.49","NaN","173.133","1.643","NaN","0","294",NA
"139","R_1QuWL6R52hgrLc3","standard","2","58","LP","0.264713485566566","174.139","174.414","175.231","1.092","0.817","3","297",NA
"140","R_1QuWL6R52hgrLc3","standard","2","59","LP","30","176.235","NaN","177.844","1.609","NaN","0","297",NA
"141","R_1QuWL6R52hgrLc3","standard","2","60","LP","1.25738905644119","178.85","180.108","180.621","1.771","0.513","3","300",NA
"142","R_1QuWL6R52hgrLc3","standard","2","61","LP","0.661783713916415","181.627","182.29","183.004","1.377","0.714","3","303",NA
"143","R_1QuWL6R52hgrLc3","standard","2","62","LP","3.49090909090909","184.013","NaN","185.933","1.92","NaN","0","303",NA
"144","R_1QuWL6R52hgrLc3","standard","2","63","LP","19.8235243429556","186.939","NaN","188.854","1.915","NaN","0","303",NA
"145","R_1QuWL6R52hgrLc3","standard","2","64","LP","0.661783713916415","189.859","190.521","191.26","1.401","0.739","3","306",NA
"146","R_1QuWL6R52hgrLc3","standard","2","65","LP","0.661783713916415","192.3","192.97","193.698","1.398","0.728","3","309",NA
"147","R_1QuWL6R52hgrLc3","standard","2","66","LP","5.5010771219302","194.706","NaN","198.277","3.571","NaN","0","309",NA
"148","R_1QuWL6R52hgrLc3","standard","2","67","LP","13.0392072382594","199.283","NaN","199.838","0.555","NaN","0","309",NA
"149","R_1QuWL6R52hgrLc3","standard","2","68","LP","3.49090909090909","200.843","NaN","201.794","0.951","NaN","0","309",NA
"150","R_1QuWL6R52hgrLc3","standard","2","69","LP","0.661783713916415","202.802","203.467","204.096","1.294","0.629","3","312",NA
"151","R_1QuWL6R52hgrLc3","standard","2","70","LP","13.0392072382594","205.098","NaN","206.233","1.135","NaN","0","312",NA
"152","R_1QuWL6R52hgrLc3","standard","2","71","LP","2.15079707022835","207.237","NaN","209.002","1.765","NaN","0","312",NA
"153","R_1QuWL6R52hgrLc3","standard","2","72","LP","1.25738905644119","210.005","211.281","211.506","1.501","0.225","3","315",NA
"154","R_1QuWL6R52hgrLc3","standard","2","73","LP","0.264713485566566","212.508","212.78","213.748","1.24","0.968","3","318",NA
"155","R_1QuWL6R52hgrLc3","standard","2","74","LP","0.661783713916415","214.755","215.418","216.162","1.407","0.744","3","321",NA
"156","R_1QuWL6R52hgrLc3","standard","2","75","LP","1.25738905644119","217.175","218.436","218.858","1.683","0.422","3","324",NA
"157","R_1QuWL6R52hgrLc3","standard","2","76","LP","0.264713485566566","219.86","220.133","220.9","1.04","0.767","3","327",NA
"158","R_1QuWL6R52hgrLc3","standard","2","77","LP","3.49090909090909","221.908","NaN","224.37","2.462","NaN","0","327",NA
"159","R_1QuWL6R52hgrLc3","standard","2","78","LP","2.15079707022835","225.417","NaN","227.121","1.704","NaN","0","327",NA
"160","R_1QuWL6R52hgrLc3","standard","2","79","LP","13.0392072382594","228.127","NaN","229.189","1.062","NaN","0","327",NA
"161","R_1QuWL6R52hgrLc3","standard","2","80","LP","13.0392072382594","230.196","NaN","231.579","1.383","NaN","0","327",NA
"162","R_1QuWL6R52hgrLc3","standard","2","81","LP","30","232.589","NaN","234.467","1.878","NaN","0","327",NA
"163","R_1QuWL6R52hgrLc3","standard","2","82","LP","2.15079707022835","235.468","NaN","237.443","1.975","NaN","0","327",NA
"164","R_1QuWL6R52hgrLc3","standard","2","83","LP","3.49090909090909","238.452","NaN","241.324","2.872","NaN","0","327",NA
"165","R_1QuWL6R52hgrLc3","standard","2","84","LP","13.0392072382594","242.327","NaN","243.604","1.277","NaN","0","327",NA
"166","R_1QuWL6R52hgrLc3","standard","2","85","LP","3.49090909090909","244.615","NaN","246.078","1.463","NaN","0","327",NA
"167","R_1QuWL6R52hgrLc3","standard","2","86","LP","13.0392072382594","247.084","NaN","248.564","1.48","NaN","0","327",NA
"168","R_1QuWL6R52hgrLc3","standard","2","87","LP","0.264713485566566","249.573","249.844","250.593","1.02","0.749","3","330",NA
"169","R_1QuWL6R52hgrLc3","standard","2","88","LP","19.8235243429556","251.597","NaN","253.179","1.582","NaN","0","330",NA
"170","R_1QuWL6R52hgrLc3","standard","2","89","LP","5.5010771219302","254.189","NaN","255.957","1.768","NaN","0","330",NA
"171","R_1QuWL6R52hgrLc3","standard","2","90","LP","8.51632916846187","256.967","NaN","258.992","2.025","NaN","0","330",NA
"172","R_1QuWL6R52hgrLc3","standard","2","91","LP","2.15079707022835","259.999","NaN","262.039","2.04","NaN","0","330",NA
"173","R_1QuWL6R52hgrLc3","standard","2","92","LP","8.51632916846187","263.045","NaN","264.591","1.546","NaN","0","330",NA
"174","R_1QuWL6R52hgrLc3","standard","2","93","LP","3.49090909090909","265.597","NaN","267.944","2.347","NaN","0","330",NA
"175","R_1QuWL6R52hgrLc3","standard","2","94","LP","0.264713485566566","268.949","269.215","269.921","0.972","0.706","3","333",NA
"176","R_1QuWL6R52hgrLc3","standard","2","95","LP","0.661783713916415","270.925","271.597","272.415","1.49","0.818","3","336",NA
"177","R_1QuWL6R52hgrLc3","standard","2","96","LP","1.25738905644119","273.503","274.764","275.675","2.172","0.911","3","339",NA
"178","R_1QuWL6R52hgrLc3","standard","2","97","LP","8.51632916846187","276.687","NaN","278.751","2.064","NaN","0","339",NA
"179","R_1QuWL6R52hgrLc3","standard","2","98","LP","1.25738905644119","279.772","281.038","281.234","1.462","0.196","3","342",NA
"180","R_1QuWL6R52hgrLc3","standard","2","99","LP","5.5010771219302","282.245","NaN","284.873","2.628","NaN","0","342",NA
"181","R_1QuWL6R52hgrLc3","standard","2","100","LP","2.15079707022835","285.878","288.029","288.202","2.324","0.173","3","345",NA
"182","R_1QuWL6R52hgrLc3","standard","2","101","LP","0.264713485566566","289.205","289.477","290.187","0.982","0.71","3","348",NA
"183","R_1QuWL6R52hgrLc3","standard","2","102","LP","8.51632916846187","291.196","NaN","293.004","1.808","NaN","0","348",NA
"184","R_1QuWL6R52hgrLc3","standard","2","103","LP","19.8235243429556","294.013","NaN","295.928","1.915","NaN","0","348",NA
"185","R_1QuWL6R52hgrLc3","standard","2","104","LP","5.5010771219302","296.933","NaN","299.822","2.889","NaN","0","348",NA
"186","R_1QuWL6R52hgrLc3","standard","2","105","LP","1.25738905644119","300.829","302.095","302.827","1.998","0.732","3","351",NA
"187","R_1QuWL6R52hgrLc3","standard","2","106","LP","3.49090909090909","303.837","NaN","307.207","3.37","NaN","0","351",NA
"188","R_1QuWL6R52hgrLc3","standard","2","107","LP","2.15079707022835","308.214","310.372","310.676","2.462","0.304","3","354",NA
"189","R_1QuWL6R52hgrLc3","standard","2","108","LP","1.25738905644119","311.685","312.949","313.07","1.385","0.121","3","357",NA
"190","R_1QuWL6R52hgrLc3","standard","2","109","LP","30","314.077","NaN","315.933","1.856","NaN","0","357",NA
"191","R_1QuWL6R52hgrLc3","standard","2","110","LP","0.264713485566566","316.936","317.205",NA,"1.292",NA,"0","357",NA
"192","R_1QuWL6R52hgrLc3","standard","2","111","LP","2.15079707022835","319.261","NaN","320.625","1.364","NaN","0","357",NA
"193","R_1QuWL6R52hgrLc3","standard","2","112","LP","0.661783713916415","321.627","322.294","322.422","0.795","0.128","3","360",NA
"194","R_1QuWL6R52hgrLc3","standard","2","113","LP","8.51632916846187","323.428","NaN","324.039","0.611","NaN","0","360",NA
"195","R_1QuWL6R52hgrLc3","standard","2","114","LP","8.51632916846187","325.05","NaN","325.753","0.703","NaN","0","360",NA
"196","R_1QuWL6R52hgrLc3","standard","2","115","LP","5.5010771219302","326.757","NaN","327.697","0.94","NaN","0","360",NA
"197","R_1QuWL6R52hgrLc3","standard","2","116","LP","8.51632916846187","328.708","NaN","329.185","0.477","NaN","0","360",NA
"198","R_1QuWL6R52hgrLc3","standard","2","117","LP","0.264713485566566","330.19","330.502","331.059","0.869","0.557","3","363",NA
"199","R_1QuWL6R52hgrLc3","standard","2","118","LP","5.5010771219302","332.12","NaN","332.67","0.55","NaN","0","363",NA
"200","R_1QuWL6R52hgrLc3","standard","2","119","LP","0.264713485566566","333.678","333.957","334.256","0.578","0.299","3","366",NA
"201","R_1QuWL6R52hgrLc3","standard","2","120","LP","0.661783713916415","335.266","335.934","336.113","0.847","0.179","3","369",NA
"202","R_1QuWL6R52hgrLc3","standard","2","121","LP","8.51632916846187","337.115","NaN","337.838","0.723","NaN","0","369",NA
"203","R_1QuWL6R52hgrLc3","standard","2","122","LP","8.51632916846187","338.845","NaN","339.612","0.767","NaN","0","369",NA
"204","R_1QuWL6R52hgrLc3","standard","2","123","LP","30","340.618","NaN","341.262","0.644","NaN","0","369",NA
"205","R_1QuWL6R52hgrLc3","standard","2","124","LP","8.51632916846187","342.271","NaN","342.909","0.638","NaN","0","369",NA
"206","R_1QuWL6R52hgrLc3","standard","2","125","LP","1.25738905644119","343.912","NaN","344.435","0.523","NaN","0","369",NA
"207","R_1QuWL6R52hgrLc3","standard","2","126","LP","2.15079707022835","345.503","NaN","346.791","1.288","NaN","0","369",NA
"208","R_1QuWL6R52hgrLc3","standard","2","127","LP","5.5010771219302","347.805","NaN","348.931","1.126","NaN","0","369",NA
"209","R_1QuWL6R52hgrLc3","standard","2","128","LP","8.51632916846187","349.933","NaN","351.059","1.126","NaN","0","369",NA
"210","R_1QuWL6R52hgrLc3","standard","2","129","LP","19.8235243429556","352.062","NaN","352.644","0.582","NaN","0","369",NA
"211","R_1QuWL6R52hgrLc3","standard","2","130","LP","8.51632916846187","353.653","NaN","354.668","1.015","NaN","0","369",NA
"212","R_1QuWL6R52hgrLc3","standard","2","131","LP","30","355.677","NaN","356.502","0.825","NaN","0","369",NA
"213","R_1QuWL6R52hgrLc3","standard","2","132","LP","2.15079707022835","357.517","NaN","358.7","1.183","NaN","0","369",NA
"214","R_1QuWL6R52hgrLc3","standard","2","133","LP","3.49090909090909","359.736","NaN","360.964","1.228","NaN","0","369",NA
"215","R_1QuWL6R52hgrLc3","standard","2","134","LP","13.0392072382594","362.009","NaN","362.703","0.694","NaN","0","369",NA
"216","R_1QuWL6R52hgrLc3","standard","2","135","LP","0.264713485566566","363.71","363.981","364.738","1.028","0.757","3","372",NA
"217","R_1QuWL6R52hgrLc3","standard","2","136","LP","19.8235243429556","365.755","NaN","367.159","1.404","NaN","0","372",NA
"218","R_1QuWL6R52hgrLc3","standard","2","137","LP","5.5010771219302","368.17","NaN","369.788","1.618","NaN","0","372",NA
"219","R_1QuWL6R52hgrLc3","standard","2","138","LP","0.264713485566566","370.79","371.061","371.798","1.008","0.737","3","375",NA
"220","R_1QuWL6R52hgrLc3","standard","2","139","LP","5.5010771219302","372.819","NaN","375.68","2.861","NaN","0","375",NA
"221","R_1QuWL6R52hgrLc3","standard","2","140","LP","5.5010771219302","376.686","NaN","377.42","0.734","NaN","0","375",NA
"222","R_1QuWL6R52hgrLc3","standard","2","141","LP","0.661783713916415","378.423","379.097","379.923","1.5","0.826","3","378",NA
"223","R_1QuWL6R52hgrLc3","standard","2","142","LP","8.51632916846187","380.926","NaN","382.287","1.361","NaN","0","378",NA
"224","R_1QuWL6R52hgrLc3","standard","2","143","LP","5.5010771219302","383.294","NaN","384.503","1.209","NaN","0","378",NA
"225","R_1QuWL6R52hgrLc3","standard","2","144","LP","19.8235243429556","385.512","NaN","386.851","1.339","NaN","0","378",NA
"226","R_1QuWL6R52hgrLc3","standard","2","145","LP","1.25738905644119","387.904","389.169","390.121","2.217","0.952","3","381",NA
"227","R_1QuWL6R52hgrLc3","standard","2","146","LP","1.25738905644119","391.211","392.487","393.218","2.007","0.731","3","384",NA
"228","R_1QuWL6R52hgrLc3","standard","2","147","LP","2.15079707022835","394.222","396.378",NA,"3.162",NA,"0","384",NA
"229","R_1QuWL6R52hgrLc3","standard","2","148","LP","0.661783713916415","398.391","399.063","399.763","1.372","0.7","3","387",NA
"230","R_1QuWL6R52hgrLc3","standard","2","149","LP","5.5010771219302","400.767","NaN","404.022","3.255","NaN","0","387",NA
"231","R_1QuWL6R52hgrLc3","standard","2","150","LP","8.51632916846187","405.032","NaN","405.611","0.579","NaN","0","387",NA
"232","R_1QuWL6R52hgrLc3","standard","2","151","LP","0.264713485566566","406.617","406.888",NA,"1.287",NA,"0","387",NA
"233","R_1QuWL6R52hgrLc3","standard","2","152","LP","30","408.909","NaN","413.78","4.871","NaN","0","387",NA
"234","R_1QuWL6R52hgrLc3","standard","2","153","LP","2.15079707022835","414.791","NaN","415.733","0.942","NaN","0","387",NA
"235","R_1QuWL6R52hgrLc3","standard","2","154","LP","1.25738905644119","416.76","418.083","418.564","1.804","0.481","3","390",NA
"236","R_1QuWL6R52hgrLc3","standard","2","155","LP","3.49090909090909","419.585","423.082","423.648","4.063","0.566","3","393",NA
"237","R_1QuWL6R52hgrLc3","standard","2","156","LP","8.51632916846187","424.666","NaN","427.053","2.387","NaN","0","393",NA
"238","R_1QuWL6R52hgrLc3","standard","2","157","LP","8.51632916846187","428.063","NaN","431.934","3.871","NaN","0","393",NA
"239","R_1QuWL6R52hgrLc3","standard","2","158","LP","3.49090909090909","432.981","NaN","433.907","0.926","NaN","0","393",NA
"240","R_1QuWL6R52hgrLc3","standard","2","159","LP","0.661783713916415","435.129","435.809","436.306","1.177","0.497","3","396",NA
"241","R_1QuWL6R52hgrLc3","standard","2","160","LP","0.661783713916415","437.313","437.982","438.72","1.407","0.738","3","399",NA
"242","R_1QuWL6R52hgrLc3","standard","2","161","LP","3.49090909090909","439.726","NaN","441.969","2.243","NaN","0","399",NA
"243","R_1QuWL6R52hgrLc3","standard","2","162","LP","0.661783713916415","442.975","443.659","444.119","1.144","0.46","3","402",NA
"244","R_1QuWL6R52hgrLc3","standard","2","163","LP","13.0392072382594","445.127","NaN","446.527","1.4","NaN","0","402",NA
"245","R_1QuWL6R52hgrLc3","standard","2","164","LP","0.264713485566566","447.536","447.826","448.718","1.182","0.892","3","405",NA
"246","R_1QuWL6R52hgrLc3","standard","2","165","LP","8.51632916846187","449.833","NaN","450.778","0.945","NaN","0","405",NA
"247","R_1QuWL6R52hgrLc3","standard","2","166","LP","19.8235243429556","451.786","NaN","453.185","1.399","NaN","0","405",NA
"248","R_1QuWL6R52hgrLc3","standard","2","167","LP","19.8235243429556","454.206","NaN","455.6","1.394","NaN","0","405",NA
"249","R_1QuWL6R52hgrLc3","standard","2","168","LP","1.25738905644119","456.606","NaN","457.686","1.08","NaN","0","405",NA
"250","R_1QuWL6R52hgrLc3","standard","2","169","LP","5.5010771219302","458.876","NaN","460.952","2.076","NaN","0","405",NA
"251","R_1QuWL6R52hgrLc3","standard","2","170","LP","19.8235243429556","461.96","NaN","463.278","1.318","NaN","0","405",NA
"252","R_1QuWL6R52hgrLc3","standard","2","171","LP","3.49090909090909","464.294","NaN","466.012","1.718","NaN","0","405",NA
"253","R_1QuWL6R52hgrLc3","standard","2","172","LP","1.25738905644119","467.146","468.406","468.515","1.369","0.109","3","408",NA
"254","R_1QuWL6R52hgrLc3","standard","2","173","LP","13.0392072382594","469.521","NaN","470.595","1.074","NaN","0","408",NA
"255","R_1QuWL6R52hgrLc3","standard","2","174","LP","0.264713485566566","471.599","471.871","472.506","0.907","0.635","3","411",NA
"256","R_1QuWL6R52hgrLc3","standard","2","175","LP","13.0392072382594","473.521","NaN","474.755","1.234","NaN","0","411",NA
"257","R_1QuWL6R52hgrLc3","standard","2","176","LP","3.49090909090909","475.76","NaN","476.755","0.995","NaN","0","411",NA
"258","R_1QuWL6R52hgrLc3","standard","2","177","LP","13.0392072382594","477.846","NaN","478.636","0.79","NaN","0","411",NA
"259","R_1QuWL6R52hgrLc3","standard","2","178","LP","8.51632916846187","479.639","NaN","481.004","1.365","NaN","0","411",NA
"260","R_1QuWL6R52hgrLc3","standard","2","179","LP","0.661783713916415","482.01","482.679","483.461","1.451","0.782","3","414",NA
"261","R_1QuWL6R52hgrLc3","standard","2","180","LP","30","484.475","NaN","485.78","1.305","NaN","0","414",NA
"262","R_1QuWL6R52hgrLc3","standard","2","181","LP","13.0392072382594","486.788","NaN","487.595","0.807","NaN","0","414",NA
"263","R_1QuWL6R52hgrLc3","standard","2","182","LP","3.49090909090909","488.599","NaN","489.886","1.287","NaN","0","414",NA
"264","R_1QuWL6R52hgrLc3","standard","2","183","LP","3.49090909090909","490.894","NaN","492.318","1.424","NaN","0","414",NA
"265","R_1QuWL6R52hgrLc3","standard","2","184","LP","1.25738905644119","493.335","494.603","494.708","1.373","0.105","3","417",NA
"266","R_1QuWL6R52hgrLc3","standard","2","185","LP","3.49090909090909","495.71","NaN","497.454","1.744","NaN","0","417",NA
"267","R_1QuWL6R52hgrLc3","standard","2","186","LP","5.5010771219302","498.476","NaN","500.023","1.547","NaN","0","417",NA
"268","R_1QuWL6R52hgrLc3","standard","2","187","LP","8.51632916846187","501.044","NaN","502.527","1.483","NaN","0","417",NA
"269","R_1QuWL6R52hgrLc3","standard","2","188","LP","1.25738905644119","503.535","504.8","504.947","1.412","0.147","3","420",NA
"270","R_1QuWL6R52hgrLc3","standard","2","189","LP","1.25738905644119","505.957","507.378","507.648","1.691","0.27","3","423",NA
"271","R_1QuWL6R52hgrLc3","standard","2","190","LP","3.49090909090909","508.656","NaN","510.805","2.149","NaN","0","423",NA
"272","R_1QuWL6R52hgrLc3","standard","2","191","LP","1.25738905644119","511.942","513.209","513.711","1.769","0.502","3","426",NA
"273","R_1QuWL6R52hgrLc3","standard","2","192","LP","0.264713485566566","514.716","514.984","515.906","1.19","0.922","3","429",NA
"274","R_1QuWL6R52hgrLc3","standard","2","193","LP","0.661783713916415","516.912","517.593","518.338","1.426","0.745","3","432",NA
"275","R_1QuWL6R52hgrLc3","standard","2","194","LP","8.51632916846187","519.346","NaN","520.468","1.122","NaN","0","432",NA
"276","R_1QuWL6R52hgrLc3","standard","2","195","LP","2.15079707022835","521.474","NaN","523.187","1.713","NaN","0","432",NA
"277","R_1QuWL6R52hgrLc3","standard","2","196","LP","3.49090909090909","524.196","NaN","525.706","1.51","NaN","0","432",NA
"278","R_1QuWL6R52hgrLc3","standard","2","197","LP","8.51632916846187","526.712","NaN","528.102","1.39","NaN","0","432",NA
"279","R_1QuWL6R52hgrLc3","standard","2","198","LP","0.661783713916415","529.119","529.902","530.794","1.675","0.892","3","435",NA
"280","R_1QuWL6R52hgrLc3","standard","2","199","LP","0.661783713916415","531.8","532.526","533.256","1.456","0.73","3","438",NA
"281","R_1QuWL6R52hgrLc3","standard","2","200","LP","2.15079707022835","534.264","NaN","535.767","1.503","NaN","0","438",NA
"282","R_1QuWL6R52hgrLc3","standard","2","201","LP","0.264713485566566","536.776","537.049","537.806","1.03","0.757","3","441",NA
"283","R_1QuWL6R52hgrLc3","standard","2","202","LP","1.25738905644119","538.816","NaN","540.004","1.188","NaN","0","441",NA
"284","R_1QuWL6R52hgrLc3","standard","2","203","LP","19.8235243429556","541.014","NaN","542.256","1.242","NaN","0","441",NA
"285","R_1QuWL6R52hgrLc3","standard","2","204","LP","13.0392072382594","543.264","NaN","544.598","1.334","NaN","0","441",NA
"286","R_1QuWL6R52hgrLc3","standard","2","205","LP","0.661783713916415","545.608","546.272","546.686","1.078","0.414","3","444",NA
"287","R_1QuWL6R52hgrLc3","standard","2","206","LP","30","547.697","NaN","549.58","1.883","NaN","0","444",NA
"288","R_1QuWL6R52hgrLc3","standard","2","207","LP","0.661783713916415","550.657","NaN","551.323","0.666","NaN","0","444",NA
"289","R_1QuWL6R52hgrLc3","standard","2","208","LP","1.25738905644119","552.332","553.708","554.025","1.693","0.317","3","447",NA
"290","R_1QuWL6R52hgrLc3","standard","2","209","LP","8.51632916846187","555.06","NaN","556.892","1.832","NaN","0","447",NA
"291","R_1QuWL6R52hgrLc3","standard","2","210","LP","0.661783713916415","558.046","558.718","559.668","1.622","0.95","3","450",NA
"292","R_1QuWL6R52hgrLc3","standard","2","211","LP","30","560.672","NaN","562.071","1.399","NaN","0","450",NA
"293","R_1QuWL6R52hgrLc3","standard","2","212","LP","5.5010771219302","563.08","NaN","564.575","1.495","NaN","0","450",NA
"294","R_1QuWL6R52hgrLc3","standard","2","213","LP","3.49090909090909","565.599","NaN","566.813","1.214","NaN","0","450",NA
"295","R_1QuWL6R52hgrLc3","standard","2","214","LP","1.25738905644119","567.857","NaN","568.636","0.779","NaN","0","450",NA
"296","R_1QuWL6R52hgrLc3","standard","2","215","LP","13.0392072382594","569.665","NaN","570.33","0.665","NaN","0","450",NA
"297","R_1QuWL6R52hgrLc3","standard","2","216","LP","3.49090909090909","571.396","NaN","571.964","0.568","NaN","0","450",NA
"298","R_1QuWL6R52hgrLc3","standard","2","217","LP","1.25738905644119","572.991","NaN","573.599","0.608","NaN","0","450",NA
"299","R_1QuWL6R52hgrLc3","standard","2","218","LP","8.51632916846187","574.605","NaN","575.281","0.676","NaN","0","450",NA
"300","R_1QuWL6R52hgrLc3","standard","2","219","LP","8.51632916846187","576.289","NaN","576.898","0.609","NaN","0","450",NA
"301","R_1QuWL6R52hgrLc3","standard","2","220","LP","1.25738905644119","577.906","NaN","578.947","1.041","NaN","0","450",NA
"302","R_1QuWL6R52hgrLc3","standard","2","221","LP","0.661783713916415","579.955","580.624","581.306","1.351","0.682","3","453",NA
"303","R_1QuWL6R52hgrLc3","standard","2","222","LP","2.15079707022835","582.312","584.527","584.702","2.39","0.175","3","456",NA
"304","R_1QuWL6R52hgrLc3","standard","2","223","LP","1.25738905644119","585.709","587.006","587.523","1.814","0.517","3","459",NA
"305","R_1QuWL6R52hgrLc3","standard","2","224","LP","30","588.538","NaN","591.042","2.504","NaN","0","459",NA
"306","R_1QuWL6R52hgrLc3","standard","2","225","LP","0.264713485566566","592.056","592.476","592.708","0.652","0.232","3","462",NA
"307","R_1QuWL6R52hgrLc3","standard","2","226","LP","30","593.712","NaN","596.388","2.676","NaN","0","462",NA
"308","R_1QuWL6R52hgrLc3","standard","2","227","LP","30","597.393","NaN","598.189","0.796","NaN","0","462",NA
"309","R_1QuWL6R52hgrLc3","standard","2","228","LP","30","599.201","NaN","599.964","0.763","NaN","0","462",NA
