"","subject_id","condition","n_block","n_trialIdx","f_timing_condition","n_scheduled_delay","n_trial_start_time","n_rewarded_time_fin","n_sell_time_fin","n_time_waited_fin","RT_fin","n_trial_earnings_fin","n_total_earnings_fin","keypress_times"
"1","R_1qaOiqnwJsd5iXo","standard","1","1","HP","14","0.004","14.016","14.631","14.627","0.615","3","3",""
"2","R_1qaOiqnwJsd5iXo","standard","1","2","HP","12","15.632","27.641","28.346","12.714","0.705","3","6",""
"3","R_1qaOiqnwJsd5iXo","standard","1","3","HP","6","29.358","35.361","35.99","6.632","0.629","3","9",""
"4","R_1qaOiqnwJsd5iXo","standard","1","4","HP","10","36.998","47.021","47.654","10.656","0.633","3","12",""
"5","R_1qaOiqnwJsd5iXo","standard","1","5","HP","12","48.656","60.664","61.398","12.742","0.734","3","15",""
"6","R_1qaOiqnwJsd5iXo","standard","1","6","HP","10","62.415","72.417","73.066","10.651","0.649","3","18",""
"7","R_1qaOiqnwJsd5iXo","standard","1","7","HP","14","74.081","88.099","88.866","14.785","0.767","3","21",""
"8","R_1qaOiqnwJsd5iXo","standard","1","8","HP","4","89.874","93.881","94.536","4.662","0.655","3","24",""
"9","R_1qaOiqnwJsd5iXo","standard","1","9","HP","8","95.538","103.545","104.213","8.675","0.668","3","27",""
"10","R_1qaOiqnwJsd5iXo","standard","1","10","HP","18","105.217","123.226","123.833","18.616","0.607","3","30",""
"11","R_1qaOiqnwJsd5iXo","standard","1","11","HP","12","124.842","136.851","137.565","12.723","0.714","3","33",""
"12","R_1qaOiqnwJsd5iXo","standard","1","12","HP","18","138.57","156.58","157.34","18.77","0.76","3","36",""
"13","R_1qaOiqnwJsd5iXo","standard","1","13","HP","16","158.355","174.362","175.125","16.77","0.763","3","39",""
"14","R_1qaOiqnwJsd5iXo","standard","1","14","HP","4","176.147","180.148","180.788","4.641","0.64","3","42",""
"15","R_1qaOiqnwJsd5iXo","standard","1","15","HP","2","181.796","183.804","184.483","2.687","0.679","3","45",""
"16","R_1qaOiqnwJsd5iXo","standard","1","16","HP","14","185.495","199.498","200.327","14.832","0.829","3","48",""
"17","R_1qaOiqnwJsd5iXo","standard","1","17","HP","20","201.329","221.331","222.089","20.76","0.758","3","51",""
"18","R_1qaOiqnwJsd5iXo","standard","1","18","HP","6","223.093","229.108","229.907","6.814","0.799","3","54",""
"19","R_1qaOiqnwJsd5iXo","standard","1","19","HP","14","230.916","244.923","245.624","14.708","0.701","3","57",""
"20","R_1qaOiqnwJsd5iXo","standard","1","20","HP","16","246.638","262.644","263.375","16.737","0.731","3","60",""
"21","R_1qaOiqnwJsd5iXo","standard","1","21","HP","12","264.393","276.408","277.238","12.845","0.83","3","63",""
"22","R_1qaOiqnwJsd5iXo","standard","1","22","HP","14","278.24","292.252","292.959","14.719","0.707","3","66",""
"23","R_1qaOiqnwJsd5iXo","standard","1","23","HP","6","293.971","299.991","300.678","6.707","0.687","3","69",""
"24","R_1qaOiqnwJsd5iXo","standard","1","24","HP","8","301.697","309.722","310.41","8.713","0.688","3","72",""
"25","R_1qaOiqnwJsd5iXo","standard","1","25","HP","16","311.412","327.414","328.155","16.743","0.741","3","75",""
"26","R_1qaOiqnwJsd5iXo","standard","1","26","HP","6","329.161","335.163","335.914","6.753","0.751","3","78",""
"27","R_1qaOiqnwJsd5iXo","standard","1","27","HP","12","336.932","348.94","NA","13.011","NA","0","78",""
"28","R_1qaOiqnwJsd5iXo","standard","1","28","HP","4","350.947","354.956","355.606","4.659","0.65","3","81",""
"29","R_1qaOiqnwJsd5iXo","standard","1","29","HP","8","356.622","364.624","365.288","8.666","0.664","3","84",""
"30","R_1qaOiqnwJsd5iXo","standard","1","30","HP","4","366.32","370.323","370.974","4.654","0.651","3","87",""
"31","R_1qaOiqnwJsd5iXo","standard","1","31","HP","8","372.01","380.026","380.682","8.672","0.656","3","90",""
"32","R_1qaOiqnwJsd5iXo","standard","1","32","HP","12","381.691","393.713","394.331","12.64","0.618","3","93",""
"33","R_1qaOiqnwJsd5iXo","standard","1","33","HP","8","395.333","403.338","404.028","8.695","0.69","3","96",""
"34","R_1qaOiqnwJsd5iXo","standard","1","34","HP","18","405.028","423.036","423.672","18.644","0.636","3","99",""
"35","R_1qaOiqnwJsd5iXo","standard","1","35","HP","6","424.676","430.684","431.325","6.649","0.641","3","102",""
"36","R_1qaOiqnwJsd5iXo","standard","1","36","HP","8","432.333","440.339","441.065","8.732","0.726","3","105",""
"37","R_1qaOiqnwJsd5iXo","standard","1","37","HP","8","442.068","450.087","450.76","8.692","0.673","3","108",""
"38","R_1qaOiqnwJsd5iXo","standard","1","38","HP","12","451.765","463.788","464.445","12.68","0.657","3","111",""
"39","R_1qaOiqnwJsd5iXo","standard","1","39","HP","6","465.452","471.46","472.237","6.785","0.777","3","114",""
"40","R_1qaOiqnwJsd5iXo","standard","1","40","HP","16","473.245","489.252","489.902","16.657","0.65","3","117",""
"41","R_1qaOiqnwJsd5iXo","standard","1","41","HP","8","490.932","498.932","499.563","8.631","0.631","3","120",""
"42","R_1qaOiqnwJsd5iXo","standard","1","42","HP","2","500.597","502.605","503.239","2.642","0.634","3","123",""
"43","R_1qaOiqnwJsd5iXo","standard","1","43","HP","14","504.245","518.251","519","14.755","0.749","3","126",""
"44","R_1qaOiqnwJsd5iXo","standard","1","44","HP","16","520.016","536.021","536.713","16.697","0.692","3","129",""
"45","R_1qaOiqnwJsd5iXo","standard","1","45","HP","8","537.733","545.741","546.414","8.681","0.673","3","132",""
"46","R_1qaOiqnwJsd5iXo","standard","1","46","HP","20","547.417","567.421","568.045","20.628","0.624","3","135",""
"47","R_1qaOiqnwJsd5iXo","standard","1","47","HP","12","569.046","581.053","581.728","12.682","0.675","3","138",""
"48","R_1qaOiqnwJsd5iXo","standard","1","48","HP","8","582.738","590.741","591.404","8.666","0.663","3","141",""
"49","R_1qaOiqnwJsd5iXo","standard","1","49","HP","4","592.414","596.421","597.038","4.624","0.617","3","144",""
"50","R_1qaOiqnwJsd5iXo","standard","1","50","HP","4","598.047","602.053","602.74","4.693","0.687","3","147",""
"51","R_1qaOiqnwJsd5iXo","standard","1","51","HP","4","603.742","607.743","608.399","4.657","0.656","3","150",""
"52","R_1qaOiqnwJsd5iXo","standard","1","52","HP","20","609.414","629.429","630.078","20.664","0.649","3","153",""
"53","R_1qaOiqnwJsd5iXo","standard","1","53","HP","6","631.095","637.11","637.754","6.659","0.644","3","156",""
"54","R_1qaOiqnwJsd5iXo","standard","1","54","HP","10","638.757","648.764","649.405","10.648","0.641","3","159",""
"55","R_1qaOiqnwJsd5iXo","standard","1","55","HP","2","650.426","652.432","653.083","2.657","0.651","3","162",""
"56","R_1qaOiqnwJsd5iXo","standard","1","56","HP","18","654.093","672.104","672.694","18.601","0.59","3","165",""
"57","R_1qaOiqnwJsd5iXo","standard","1","57","HP","14","673.712","687.735","688.378","14.666","0.643","3","168",""
"58","R_1qaOiqnwJsd5iXo","standard","1","58","HP","8","689.39","697.41","698.169","8.779","0.759","3","171",""
"59","R_1qaOiqnwJsd5iXo","standard","1","59","HP","4","699.174","703.194","703.842","4.668","0.648","3","174",""
"60","R_1qaOiqnwJsd5iXo","standard","1","60","HP","4","704.845","708.854","NA","5.018","NA","0","174",""
"61","R_1qaOiqnwJsd5iXo","standard","1","61","HP","14","710.87","724.893","725.537","14.667","0.644","3","177",""
"62","R_1qaOiqnwJsd5iXo","standard","1","62","HP","20","726.541","746.543","747.177","20.636","0.634","3","180",""
"63","R_1qaOiqnwJsd5iXo","standard","1","63","HP","18","748.192","766.213","766.848","18.656","0.635","3","183",""
"64","R_1qaOiqnwJsd5iXo","standard","1","64","HP","16","767.854","783.861","784.474","16.62","0.613","3","186",""
"65","R_1qaOiqnwJsd5iXo","standard","1","65","HP","10","785.492","795.506","796.192","10.7","0.686","3","189",""
"66","R_1qaOiqnwJsd5iXo","standard","1","66","HP","20","797.196","817.208","817.874","20.678","0.666","3","192",""
"67","R_1qaOiqnwJsd5iXo","standard","1","67","HP","8","818.903","826.908","827.538","8.635","0.63","3","195",""
"68","R_1qaOiqnwJsd5iXo","standard","1","68","HP","20","828.541","848.549","849.181","20.64","0.632","3","198",""
"69","R_1qaOiqnwJsd5iXo","standard","1","69","HP","12","850.189","862.198","862.871","12.682","0.673","3","201",""
"70","R_1qaOiqnwJsd5iXo","standard","1","70","HP","20","863.888","883.901","884.513","20.625","0.612","3","204",""
"71","R_1qaOiqnwJsd5iXo","standard","2","1","LP","8.51632916846187","0.001","8.522","9.166","9.165","0.644","3","207",NA
"72","R_1qaOiqnwJsd5iXo","standard","2","2","LP","13.0392072382594","10.169","23.218","23.855","13.686","0.637","3","210",NA
"73","R_1qaOiqnwJsd5iXo","standard","2","3","LP","30","24.858","54.86","55.473","30.615","0.613","3","213",NA
"74","R_1qaOiqnwJsd5iXo","standard","2","4","LP","3.49090909090909","56.484","59.988","60.843","4.359","0.855","3","216",NA
"75","R_1qaOiqnwJsd5iXo","standard","2","5","LP","1.25738905644119","61.851","63.131","63.786","1.935","0.655","3","219",NA
"76","R_1qaOiqnwJsd5iXo","standard","2","6","LP","5.5010771219302","64.803","70.316","71.042","6.239","0.726","3","222",NA
"77","R_1qaOiqnwJsd5iXo","standard","2","7","LP","0.264713485566566","72.051","72.317","73.02","0.969","0.703","3","225",NA
"78","R_1qaOiqnwJsd5iXo","standard","2","8","LP","2.15079707022835","74.026","76.182","76.862","2.836","0.68","3","228",NA
"79","R_1qaOiqnwJsd5iXo","standard","2","9","LP","30","77.867","107.882","108.464","30.597","0.582","3","231",NA
"80","R_1qaOiqnwJsd5iXo","standard","2","10","LP","2.15079707022835","109.482","111.634","112.319","2.837","0.685","3","234",NA
"81","R_1qaOiqnwJsd5iXo","standard","2","11","LP","0.264713485566566","113.321","113.597","114.317","0.996","0.72","3","237",NA
"82","R_1qaOiqnwJsd5iXo","standard","2","12","LP","0.661783713916415","115.319","115.997","116.6","1.281","0.603","3","240",NA
"83","R_1qaOiqnwJsd5iXo","standard","2","13","LP","1.25738905644119","117.615","118.882","119.517","1.902","0.635","3","243",NA
"84","R_1qaOiqnwJsd5iXo","standard","2","14","LP","5.5010771219302","120.522","126.026","126.689","6.167","0.663","3","246",NA
"85","R_1qaOiqnwJsd5iXo","standard","2","15","LP","8.51632916846187","127.698","136.22","136.899","9.201","0.679","3","249",NA
"86","R_1qaOiqnwJsd5iXo","standard","2","16","LP","13.0392072382594","137.911","150.99","151.654","13.743","0.664","3","252",NA
"87","R_1qaOiqnwJsd5iXo","standard","2","17","LP","0.661783713916415","152.659","153.323","153.981","1.322","0.658","3","255",NA
"88","R_1qaOiqnwJsd5iXo","standard","2","18","LP","5.5010771219302","154.996","160.499","161.144","6.148","0.645","3","258",NA
"89","R_1qaOiqnwJsd5iXo","standard","2","19","LP","19.8235243429556","162.146","181.979","182.958","20.812","0.979","3","261",NA
"90","R_1qaOiqnwJsd5iXo","standard","2","20","LP","3.49090909090909","183.962","187.459","188.109","4.147","0.65","3","264",NA
"91","R_1qaOiqnwJsd5iXo","standard","2","21","LP","8.51632916846187","189.117","197.635","198.394","9.277","0.759","3","267",NA
"92","R_1qaOiqnwJsd5iXo","standard","2","22","LP","0.661783713916415","199.412","200.075","200.75","1.338","0.675","3","270",NA
"93","R_1qaOiqnwJsd5iXo","standard","2","23","LP","3.49090909090909","201.755","205.251","206","4.245","0.749","3","273",NA
"94","R_1qaOiqnwJsd5iXo","standard","2","24","LP","19.8235243429556","207.009","226.834","227.394","20.385","0.56","3","276",NA
"95","R_1qaOiqnwJsd5iXo","standard","2","25","LP","3.49090909090909","228.413","231.911","232.557","4.144","0.646","3","279",NA
"96","R_1qaOiqnwJsd5iXo","standard","2","26","LP","8.51632916846187","233.578","242.109","242.946","9.368","0.837","3","282",NA
"97","R_1qaOiqnwJsd5iXo","standard","2","27","LP","2.15079707022835","243.946","246.107","246.77","2.824","0.663","3","285",NA
"98","R_1qaOiqnwJsd5iXo","standard","2","28","LP","13.0392072382594","247.793","260.835","261.502","13.709","0.667","3","288",NA
"99","R_1qaOiqnwJsd5iXo","standard","2","29","LP","0.661783713916415","262.542","263.205","264.001","1.459","0.796","3","291",NA
"100","R_1qaOiqnwJsd5iXo","standard","2","30","LP","0.264713485566566","265.002","265.275","265.904","0.902","0.629","3","294",NA
"101","R_1qaOiqnwJsd5iXo","standard","2","31","LP","30","266.91","296.916","297.534","30.624","0.618","3","297",NA
"102","R_1qaOiqnwJsd5iXo","standard","2","32","LP","0.661783713916415","298.539","299.202","299.821","1.282","0.619","3","300",NA
"103","R_1qaOiqnwJsd5iXo","standard","2","33","LP","30","300.827","330.836","331.423","30.596","0.587","3","303",NA
"104","R_1qaOiqnwJsd5iXo","standard","2","34","LP","2.15079707022835","332.424","334.589","335.326","2.902","0.737","3","306",NA
"105","R_1qaOiqnwJsd5iXo","standard","2","35","LP","8.51632916846187","336.329","344.85","345.489","9.16","0.639","3","309",NA
"106","R_1qaOiqnwJsd5iXo","standard","2","36","LP","13.0392072382594","346.506","359.554","360.16","13.654","0.606","3","312",NA
"107","R_1qaOiqnwJsd5iXo","standard","2","37","LP","0.264713485566566","361.162","361.426","362.047","0.885","0.621","3","315",NA
"108","R_1qaOiqnwJsd5iXo","standard","2","38","LP","8.51632916846187","363.05","371.571","372.228","9.178","0.657","3","318",NA
"109","R_1qaOiqnwJsd5iXo","standard","2","39","LP","8.51632916846187","373.234","381.754","382.371","9.137","0.617","3","321",NA
"110","R_1qaOiqnwJsd5iXo","standard","2","40","LP","19.8235243429556","383.386","NaN","388.735","5.349","NaN","0","321",NA
"111","R_1qaOiqnwJsd5iXo","standard","2","41","LP","0.661783713916415","389.738","390.403","391.229","1.491","0.826","3","324",NA
"112","R_1qaOiqnwJsd5iXo","standard","2","42","LP","3.49090909090909","392.235","395.731","396.402","4.167","0.671","3","327",NA
"113","R_1qaOiqnwJsd5iXo","standard","2","43","LP","30","397.414","427.414","427.987","30.573","0.573","3","330",NA
"114","R_1qaOiqnwJsd5iXo","standard","2","44","LP","0.661783713916415","429","429.667","430.274","1.274","0.607","3","333",NA
"115","R_1qaOiqnwJsd5iXo","standard","2","45","LP","19.8235243429556","431.275","451.114","451.875","20.6","0.761","3","336",NA
"116","R_1qaOiqnwJsd5iXo","standard","2","46","LP","19.8235243429556","452.883","472.715","473.362","20.479","0.647","3","339",NA
"117","R_1qaOiqnwJsd5iXo","standard","2","47","LP","13.0392072382594","474.363","487.412","488.1","13.737","0.688","3","342",NA
"118","R_1qaOiqnwJsd5iXo","standard","2","48","LP","3.49090909090909","489.114","492.616","493.299","4.185","0.683","3","345",NA
"119","R_1qaOiqnwJsd5iXo","standard","2","49","LP","19.8235243429556","494.315","514.147","514.865","20.55","0.718","3","348",NA
"120","R_1qaOiqnwJsd5iXo","standard","2","50","LP","0.264713485566566","515.867","516.134","516.862","0.995","0.728","3","351",NA
"121","R_1qaOiqnwJsd5iXo","standard","2","51","LP","0.661783713916415","517.867","518.53","519.1","1.233","0.57","3","354",NA
"122","R_1qaOiqnwJsd5iXo","standard","2","52","LP","13.0392072382594","520.107","533.146","533.875","13.768","0.729","3","357",NA
"123","R_1qaOiqnwJsd5iXo","standard","2","53","LP","5.5010771219302","534.883","540.398","541.029","6.146","0.631","3","360",NA
"124","R_1qaOiqnwJsd5iXo","standard","2","54","LP","19.8235243429556","542.033","561.858","562.563","20.53","0.705","3","363",NA
"125","R_1qaOiqnwJsd5iXo","standard","2","55","LP","13.0392072382594","563.581","576.642","577.352","13.771","0.71","3","366",NA
"126","R_1qaOiqnwJsd5iXo","standard","2","56","LP","2.15079707022835","578.354","580.507","581.233","2.879","0.726","3","369",NA
"127","R_1qaOiqnwJsd5iXo","standard","2","57","LP","5.5010771219302","582.235","587.739","588.435","6.2","0.696","3","372",NA
"128","R_1qaOiqnwJsd5iXo","standard","2","58","LP","0.264713485566566","589.535","589.817","590.432","0.897","0.615","3","375",NA
"129","R_1qaOiqnwJsd5iXo","standard","2","59","LP","3.49090909090909","591.434","594.931","595.573","4.139","0.642","3","378",NA
