"","subject_id","condition","n_block","n_trialIdx","f_timing_condition","n_scheduled_delay","n_trial_start_time","n_rewarded_time_fin","n_sell_time_fin","n_time_waited_fin","RT_fin","n_trial_earnings_fin","n_total_earnings_fin","keypress_times"
"1","R_21gG1tW9TlSErH8","standard","1","1","HP","4","0.001","4.01","4.398","4.397","0.388","3","3",""
"2","R_21gG1tW9TlSErH8","standard","1","2","HP","4","5.409","9.421","9.799","4.39","0.378","3","6",""
"3","R_21gG1tW9TlSErH8","standard","1","3","HP","2","10.803","12.812","13.391","2.588","0.579","3","9",""
"4","R_21gG1tW9TlSErH8","standard","1","4","HP","20","14.4","34.403","34.794","20.394","0.391","3","12",""
"5","R_21gG1tW9TlSErH8","standard","1","5","HP","10","35.803","45.803","46.275","10.472","0.472","3","15",""
"6","R_21gG1tW9TlSErH8","standard","1","6","HP","6","47.295","53.3","53.78","6.485","0.48","3","18",""
"7","R_21gG1tW9TlSErH8","standard","1","7","HP","8","54.798","62.804","63.254","8.456","0.45","3","21",""
"8","R_21gG1tW9TlSErH8","standard","1","8","HP","12","64.26","76.268","76.951","12.691","0.683","3","24",""
"9","R_21gG1tW9TlSErH8","standard","1","9","HP","18","77.956","95.965","96.642","18.686","0.677","3","27",""
"10","R_21gG1tW9TlSErH8","standard","1","10","HP","2","97.647","99.664","100.394","2.747","0.73","3","30",""
"11","R_21gG1tW9TlSErH8","standard","1","11","HP","8","101.396","109.413","109.843","8.447","0.43","3","33",""
"12","R_21gG1tW9TlSErH8","standard","1","12","HP","10","110.859","120.86","121.277","10.418","0.417","3","36",""
"13","R_21gG1tW9TlSErH8","standard","1","13","HP","14","122.292","136.307","136.902","14.61","0.595","3","39",""
"14","R_21gG1tW9TlSErH8","standard","1","14","HP","16","137.918","153.926","154.368","16.45","0.442","3","42",""
"15","R_21gG1tW9TlSErH8","standard","1","15","HP","6","155.372","161.38","162.281","6.909","0.901","3","45",""
"16","R_21gG1tW9TlSErH8","standard","1","16","HP","4","163.29","167.293","167.826","4.536","0.533","3","48",""
"17","R_21gG1tW9TlSErH8","standard","1","17","HP","8","168.838","176.84","177.323","8.485","0.483","3","51",""
"18","R_21gG1tW9TlSErH8","standard","1","18","HP","8","178.337","186.34","186.748","8.411","0.408","3","54",""
"19","R_21gG1tW9TlSErH8","standard","1","19","HP","10","187.767","197.772","198.197","10.43","0.425","3","57",""
"20","R_21gG1tW9TlSErH8","standard","1","20","HP","6","199.204","205.204","205.718","6.514","0.514","3","60",""
"21","R_21gG1tW9TlSErH8","standard","1","21","HP","2","206.729","208.732","209.263","2.534","0.531","3","63",""
"22","R_21gG1tW9TlSErH8","standard","1","22","HP","16","210.279","226.284","NA","17.014","NA","0","63",""
"23","R_21gG1tW9TlSErH8","standard","1","23","HP","16","228.303","244.309","244.739","16.436","0.43","3","66",""
"24","R_21gG1tW9TlSErH8","standard","1","24","HP","8","245.741","253.759","254.22","8.479","0.461","3","69",""
"25","R_21gG1tW9TlSErH8","standard","1","25","HP","20","255.22","275.221","275.75","20.53","0.529","3","72",""
"26","R_21gG1tW9TlSErH8","standard","1","26","HP","4","276.757","280.764","281.191","4.434","0.427","3","75",""
"27","R_21gG1tW9TlSErH8","standard","1","27","HP","8","282.196","290.204","291.032","8.836","0.828","3","78",""
"28","R_21gG1tW9TlSErH8","standard","1","28","HP","20","292.044","312.051","312.467","20.423","0.416","3","81",""
"29","R_21gG1tW9TlSErH8","standard","1","29","HP","16","313.468","329.476","329.901","16.433","0.425","3","84",""
"30","R_21gG1tW9TlSErH8","standard","1","30","HP","6","330.909","336.914","337.437","6.528","0.523","3","87",""
"31","R_21gG1tW9TlSErH8","standard","1","31","HP","2","338.445","340.451","NA","3.015","NA","0","87",""
"32","R_21gG1tW9TlSErH8","standard","1","32","HP","14","342.478","356.484","356.912","14.434","0.428","3","90",""
"33","R_21gG1tW9TlSErH8","standard","1","33","HP","12","357.912","369.915","370.434","12.522","0.519","3","93",""
"34","R_21gG1tW9TlSErH8","standard","1","34","HP","18","371.442","389.452","389.843","18.401","0.391","3","93","13970"
"35","R_21gG1tW9TlSErH8","standard","1","35","HP","2","390.858","392.872","393.692","2.834","0.82","3","96",""
"36","R_21gG1tW9TlSErH8","standard","1","36","HP","18","394.7","412.719","413.255","18.555","0.536","3","99",""
"37","R_21gG1tW9TlSErH8","standard","1","37","HP","20","414.26","434.268","434.721","20.461","0.453","3","99","6259"
"38","R_21gG1tW9TlSErH8","standard","1","38","HP","18","435.732","453.739","454.171","18.439","0.432","3","102",""
"39","R_21gG1tW9TlSErH8","standard","1","39","HP","20","455.18","475.2","475.734","20.554","0.534","3","105",""
"40","R_21gG1tW9TlSErH8","standard","1","40","HP","18","476.742","494.742","495.248","18.506","0.506","3","108",""
"41","R_21gG1tW9TlSErH8","standard","1","41","HP","4","496.264","500.267","500.736","4.472","0.469","3","111",""
"42","R_21gG1tW9TlSErH8","standard","1","42","HP","12","501.742","513.748","514.578","12.836","0.83","3","114",""
"43","R_21gG1tW9TlSErH8","standard","1","43","HP","16","515.593","531.6","532.036","16.443","0.436","3","117",""
"44","R_21gG1tW9TlSErH8","standard","1","44","HP","6","533.047","539.056","539.533","6.486","0.477","3","120",""
"45","R_21gG1tW9TlSErH8","standard","1","45","HP","10","540.543","550.56","551.527","10.984","0.967","3","123",""
"46","R_21gG1tW9TlSErH8","standard","1","46","HP","16","552.532","568.54","569.129","16.597","0.589","3","126",""
"47","R_21gG1tW9TlSErH8","standard","1","47","HP","20","570.132","590.14","590.635","20.503","0.495","3","129",""
"48","R_21gG1tW9TlSErH8","standard","1","48","HP","12","591.636","603.644","604.189","12.553","0.545","3","132",""
"49","R_21gG1tW9TlSErH8","standard","1","49","HP","16","605.2","621.215","621.647","16.447","0.432","3","135",""
"50","R_21gG1tW9TlSErH8","standard","1","50","HP","6","622.655","628.67","629.263","6.608","0.593","3","138",""
"51","R_21gG1tW9TlSErH8","standard","1","51","HP","10","630.268","640.276","640.649","10.381","0.373","3","141",""
"52","R_21gG1tW9TlSErH8","standard","1","52","HP","6","641.664","647.668","648.298","6.634","0.63","3","144",""
"53","R_21gG1tW9TlSErH8","standard","1","53","HP","20","649.3","669.315","669.828","20.528","0.513","3","147",""
"54","R_21gG1tW9TlSErH8","standard","1","54","HP","6","670.846","676.855","677.357","6.511","0.502","3","150",""
"55","R_21gG1tW9TlSErH8","standard","1","55","HP","6","678.364","684.371","685.126","6.762","0.755","3","153",""
"56","R_21gG1tW9TlSErH8","standard","1","56","HP","8","686.127","694.137","694.599","8.472","0.462","3","156",""
"57","R_21gG1tW9TlSErH8","standard","1","57","HP","12","695.604","707.605","708.041","12.437","0.436","3","159",""
"58","R_21gG1tW9TlSErH8","standard","1","58","HP","18","709.054","727.06","727.891","18.837","0.831","3","162",""
"59","R_21gG1tW9TlSErH8","standard","1","59","HP","2","728.904","730.907","731.587","2.683","0.68","3","165",""
"60","R_21gG1tW9TlSErH8","standard","1","60","HP","18","732.607","750.62","751.062","18.455","0.442","3","168",""
"61","R_21gG1tW9TlSErH8","standard","1","61","HP","10","752.068","762.083","762.471","10.403","0.388","3","171",""
"62","R_21gG1tW9TlSErH8","standard","1","62","HP","20","763.483","783.484","784.042","20.559","0.558","3","174",""
"63","R_21gG1tW9TlSErH8","standard","1","63","HP","18","785.044","803.052","803.412","18.368","0.36","3","177",""
"64","R_21gG1tW9TlSErH8","standard","1","64","HP","10","804.418","814.42","815.213","10.795","0.793","3","180",""
"65","R_21gG1tW9TlSErH8","standard","1","65","HP","12","816.227","828.227","829.063","12.836","0.836","3","183",""
"66","R_21gG1tW9TlSErH8","standard","1","66","HP","18","830.068","848.076","848.665","18.597","0.589","3","186",""
"67","R_21gG1tW9TlSErH8","standard","1","67","HP","20","849.668","869.686","870.164","20.496","0.478","3","189",""
"68","R_21gG1tW9TlSErH8","standard","1","68","HP","6","871.173","877.18","877.692","6.519","0.512","3","192",""
"69","R_21gG1tW9TlSErH8","standard","1","69","HP","18","878.7","896.717","897.327","18.627","0.61","3","195",""
"70","R_21gG1tW9TlSErH8","standard","2","1","LP","13.0392072382594","0.001","NaN","1.31","1.309","NaN","0","195",NA
"71","R_21gG1tW9TlSErH8","standard","2","2","LP","8.51632916846187","2.319","NaN","5.702","3.383","NaN","0","195",NA
"72","R_21gG1tW9TlSErH8","standard","2","3","LP","30","6.704","36.704","37.266","30.562","0.562","3","198",NA
"73","R_21gG1tW9TlSErH8","standard","2","4","LP","30","38.274","NaN","46.931","8.657","NaN","0","198",NA
"74","R_21gG1tW9TlSErH8","standard","2","5","LP","13.0392072382594","47.936","NaN","48.676","0.74","NaN","0","198",NA
"75","R_21gG1tW9TlSErH8","standard","2","6","LP","5.5010771219302","49.679","NaN","50.588","0.909","NaN","0","198",NA
"76","R_21gG1tW9TlSErH8","standard","2","7","LP","2.15079707022835","51.592","NaN","52.116","0.524","NaN","0","198",NA
"77","R_21gG1tW9TlSErH8","standard","2","8","LP","3.49090909090909","53.121","56.62","57.412","4.291","0.792","3","201",NA
"78","R_21gG1tW9TlSErH8","standard","2","9","LP","3.49090909090909","58.418","NaN","60.077","1.659","NaN","0","201",NA
"79","R_21gG1tW9TlSErH8","standard","2","10","LP","1.25738905644119","61.079","62.344","62.853","1.774","0.509","3","204",NA
"80","R_21gG1tW9TlSErH8","standard","2","11","LP","30","63.856","NaN","72.855","8.999","NaN","0","204",NA
"81","R_21gG1tW9TlSErH8","standard","2","12","LP","8.51632916846187","73.855","NaN","79.215","5.36","NaN","0","204",NA
"82","R_21gG1tW9TlSErH8","standard","2","13","LP","1.25738905644119","80.221","81.48","82.207","1.986","0.727","3","207",NA
"83","R_21gG1tW9TlSErH8","standard","2","14","LP","1.25738905644119","83.208","84.474","84.976","1.768","0.502","3","210",NA
"84","R_21gG1tW9TlSErH8","standard","2","15","LP","0.661783713916415","85.988","86.655","87.24","1.252","0.585","3","213",NA
"85","R_21gG1tW9TlSErH8","standard","2","16","LP","13.0392072382594","88.254","NaN","93.465","5.211","NaN","0","213",NA
"86","R_21gG1tW9TlSErH8","standard","2","17","LP","2.15079707022835","94.485","96.642","97.089","2.604","0.447","3","216",NA
"87","R_21gG1tW9TlSErH8","standard","2","18","LP","0.661783713916415","98.096","98.767","98.905","0.809","0.138","3","219",NA
"88","R_21gG1tW9TlSErH8","standard","2","19","LP","1.25738905644119","99.907","NaN","100.706","0.799","NaN","0","219",NA
"89","R_21gG1tW9TlSErH8","standard","2","20","LP","13.0392072382594","101.716","NaN","106.25","4.534","NaN","0","219",NA
"90","R_21gG1tW9TlSErH8","standard","2","21","LP","5.5010771219302","107.265","NaN","112.283","5.018","NaN","0","219",NA
"91","R_21gG1tW9TlSErH8","standard","2","22","LP","2.15079707022835","113.288","115.44","115.955","2.667","0.515","3","222",NA
"92","R_21gG1tW9TlSErH8","standard","2","23","LP","5.5010771219302","116.96","122.468","122.908","5.948","0.44","3","225",NA
"93","R_21gG1tW9TlSErH8","standard","2","24","LP","0.661783713916415","123.926","124.592",NA,"1.674",NA,"0","225",NA
"94","R_21gG1tW9TlSErH8","standard","2","25","LP","2.15079707022835","126.605","128.768","129.157","2.552","0.389","3","228",NA
"95","R_21gG1tW9TlSErH8","standard","2","26","LP","13.0392072382594","130.165","NaN","138.71","8.545","NaN","0","228",NA
"96","R_21gG1tW9TlSErH8","standard","2","27","LP","3.49090909090909","139.717","143.209","143.727","4.01","0.518","3","231",NA
"97","R_21gG1tW9TlSErH8","standard","2","28","LP","30","144.736","NaN","148.936","4.2","NaN","0","231",NA
"98","R_21gG1tW9TlSErH8","standard","2","29","LP","0.661783713916415","149.944","150.609","151.127","1.183","0.518","3","234",NA
"99","R_21gG1tW9TlSErH8","standard","2","30","LP","8.51632916846187","152.143","NaN","153.768","1.625","NaN","0","234",NA
"100","R_21gG1tW9TlSErH8","standard","2","31","LP","13.0392072382594","154.775","NaN","156.272","1.497","NaN","0","234",NA
"101","R_21gG1tW9TlSErH8","standard","2","32","LP","19.8235243429556","157.279","NaN","158.264","0.985","NaN","0","234",NA
"102","R_21gG1tW9TlSErH8","standard","2","33","LP","0.661783713916415","159.272","159.936","160.409","1.137","0.473","3","237",NA
"103","R_21gG1tW9TlSErH8","standard","2","34","LP","5.5010771219302","161.416","166.917","167.345","5.929","0.428","3","240",NA
"104","R_21gG1tW9TlSErH8","standard","2","35","LP","8.51632916846187","168.353","NaN","175.539","7.186","NaN","0","240",NA
"105","R_21gG1tW9TlSErH8","standard","2","36","LP","13.0392072382594","176.544","NaN","184.795","8.251","NaN","0","240",NA
"106","R_21gG1tW9TlSErH8","standard","2","37","LP","30","185.802","NaN","193.877","8.075","NaN","0","240",NA
"107","R_21gG1tW9TlSErH8","standard","2","38","LP","0.661783713916415","194.88","195.545","196.453","1.573","0.908","3","243",NA
"108","R_21gG1tW9TlSErH8","standard","2","39","LP","19.8235243429556","197.455","NaN","206.454","8.999","NaN","0","243",NA
"109","R_21gG1tW9TlSErH8","standard","2","40","LP","0.264713485566566","207.468","207.736","208.302","0.834","0.566","3","246",NA
"110","R_21gG1tW9TlSErH8","standard","2","41","LP","5.5010771219302","209.315","NaN","212.743","3.428","NaN","0","246",NA
"111","R_21gG1tW9TlSErH8","standard","2","42","LP","19.8235243429556","213.744","NaN","217.848","4.104","NaN","0","246",NA
"112","R_21gG1tW9TlSErH8","standard","2","43","LP","2.15079707022835","218.857","221.021","221.432","2.575","0.411","3","249",NA
"113","R_21gG1tW9TlSErH8","standard","2","44","LP","2.15079707022835","222.443","224.6","224.752","2.309","0.152","3","252",NA
"114","R_21gG1tW9TlSErH8","standard","2","45","LP","5.5010771219302","225.773","231.295","231.793","6.02","0.498","3","255",NA
"115","R_21gG1tW9TlSErH8","standard","2","46","LP","1.25738905644119","232.805","234.069","234.537","1.732","0.468","3","258",NA
"116","R_21gG1tW9TlSErH8","standard","2","47","LP","8.51632916846187","235.544","244.069","244.507","8.963","0.438","3","261",NA
"117","R_21gG1tW9TlSErH8","standard","2","48","LP","30","245.507","NaN","250.595","5.088","NaN","0","261",NA
"118","R_21gG1tW9TlSErH8","standard","2","49","LP","2.15079707022835","251.603","253.767","254.18","2.577","0.413","3","264",NA
"119","R_21gG1tW9TlSErH8","standard","2","50","LP","2.15079707022835","255.184","257.336","257.692","2.508","0.356","3","267",NA
"120","R_21gG1tW9TlSErH8","standard","2","51","LP","19.8235243429556","258.696","NaN","267.165","8.469","NaN","0","267",NA
"121","R_21gG1tW9TlSErH8","standard","2","52","LP","3.49090909090909","268.177","NaN","271.63","3.453","NaN","0","267",NA
"122","R_21gG1tW9TlSErH8","standard","2","53","LP","0.264713485566566","272.643","272.922","273.43","0.787","0.508","3","270",NA
"123","R_21gG1tW9TlSErH8","standard","2","54","LP","0.264713485566566","274.435","274.704","275.126","0.691","0.422","3","273",NA
"124","R_21gG1tW9TlSErH8","standard","2","55","LP","5.5010771219302","276.127","NaN","276.902","0.775","NaN","0","273",NA
"125","R_21gG1tW9TlSErH8","standard","2","56","LP","5.5010771219302","277.904","NaN","282.143","4.239","NaN","0","273",NA
"126","R_21gG1tW9TlSErH8","standard","2","57","LP","0.661783713916415","283.151","283.827","284.391","1.24","0.564","3","276",NA
"127","R_21gG1tW9TlSErH8","standard","2","58","LP","1.25738905644119","285.395","286.655","287.111","1.716","0.456","3","279",NA
"128","R_21gG1tW9TlSErH8","standard","2","59","LP","19.8235243429556","288.125","NaN","288.792","0.667","NaN","0","279",NA
"129","R_21gG1tW9TlSErH8","standard","2","60","LP","8.51632916846187","289.813","NaN","296.369","6.556","NaN","0","279",NA
"130","R_21gG1tW9TlSErH8","standard","2","61","LP","0.264713485566566","297.382","297.649","298.265","0.883","0.616","3","282",NA
"131","R_21gG1tW9TlSErH8","standard","2","62","LP","1.25738905644119","299.273","NaN","299.753","0.48","NaN","0","282",NA
"132","R_21gG1tW9TlSErH8","standard","2","63","LP","0.264713485566566","300.773","301.038","301.497","0.724","0.459","3","285",NA
"133","R_21gG1tW9TlSErH8","standard","2","64","LP","30","302.508","NaN","303.217","0.709","NaN","0","285",NA
"134","R_21gG1tW9TlSErH8","standard","2","65","LP","5.5010771219302","304.227","309.743","310.21","5.983","0.467","3","288",NA
"135","R_21gG1tW9TlSErH8","standard","2","66","LP","5.5010771219302","311.227","NaN","312.554","1.327","NaN","0","288",NA
"136","R_21gG1tW9TlSErH8","standard","2","67","LP","2.15079707022835","313.56","315.717","316.251","2.691","0.534","3","291",NA
"137","R_21gG1tW9TlSErH8","standard","2","68","LP","3.49090909090909","317.257","320.752","321.252","3.995","0.5","3","294",NA
"138","R_21gG1tW9TlSErH8","standard","2","69","LP","13.0392072382594","322.263","NaN","326.644","4.381","NaN","0","294",NA
"139","R_21gG1tW9TlSErH8","standard","2","70","LP","19.8235243429556","327.661","NaN","332.149","4.488","NaN","0","294",NA
"140","R_21gG1tW9TlSErH8","standard","2","71","LP","19.8235243429556","333.152","NaN","338.87","5.718","NaN","0","294",NA
"141","R_21gG1tW9TlSErH8","standard","2","72","LP","8.51632916846187","339.878","NaN","345.591","5.713","NaN","0","294",NA
"142","R_21gG1tW9TlSErH8","standard","2","73","LP","0.661783713916415","346.592","347.266","347.862","1.27","0.596","3","297",NA
"143","R_21gG1tW9TlSErH8","standard","2","74","LP","3.49090909090909","348.864","352.36","352.783","3.919","0.423","3","300",NA
"144","R_21gG1tW9TlSErH8","standard","2","75","LP","0.661783713916415","353.783","354.447",NA,"1.677",NA,"0","300",NA
"145","R_21gG1tW9TlSErH8","standard","2","76","LP","5.5010771219302","356.464","NaN","357.039","0.575","NaN","0","300",NA
"146","R_21gG1tW9TlSErH8","standard","2","77","LP","3.49090909090909","358.044","361.535","362.104","4.06","0.569","3","303",NA
"147","R_21gG1tW9TlSErH8","standard","2","78","LP","3.49090909090909","363.117","NaN","363.872","0.755","NaN","0","303",NA
"148","R_21gG1tW9TlSErH8","standard","2","79","LP","3.49090909090909","364.886","368.384","368.873","3.987","0.489","3","306",NA
"149","R_21gG1tW9TlSErH8","standard","2","80","LP","19.8235243429556","369.882","NaN","374.762","4.88","NaN","0","306",NA
"150","R_21gG1tW9TlSErH8","standard","2","81","LP","8.51632916846187","375.768","NaN","381.691","5.923","NaN","0","306",NA
"151","R_21gG1tW9TlSErH8","standard","2","82","LP","0.264713485566566","382.697","382.967","383.691","0.994","0.724","3","309",NA
"152","R_21gG1tW9TlSErH8","standard","2","83","LP","5.5010771219302","384.706","390.208","390.635","5.929","0.427","3","312",NA
"153","R_21gG1tW9TlSErH8","standard","2","84","LP","30","391.644","NaN","399.269","7.625","NaN","0","312",NA
"154","R_21gG1tW9TlSErH8","standard","2","85","LP","30","400.272","NaN","408.918","8.646","NaN","0","312",NA
"155","R_21gG1tW9TlSErH8","standard","2","86","LP","3.49090909090909","409.927","413.426","413.895","3.968","0.469","3","315",NA
"156","R_21gG1tW9TlSErH8","standard","2","87","LP","0.264713485566566","414.895","415.178","415.686","0.791","0.508","3","318",NA
"157","R_21gG1tW9TlSErH8","standard","2","88","LP","5.5010771219302","416.7","422.21","422.671","5.971","0.461","3","321",NA
"158","R_21gG1tW9TlSErH8","standard","2","89","LP","0.264713485566566","423.68","423.955","424.44","0.76","0.485","3","324",NA
"159","R_21gG1tW9TlSErH8","standard","2","90","LP","0.661783713916415","425.448","NaN","425.912","0.464","NaN","0","324",NA
"160","R_21gG1tW9TlSErH8","standard","2","91","LP","1.25738905644119","426.914","428.176","428.688","1.774","0.512","3","327",NA
"161","R_21gG1tW9TlSErH8","standard","2","92","LP","5.5010771219302","429.696","435.206","435.657","5.961","0.451","3","330",NA
"162","R_21gG1tW9TlSErH8","standard","2","93","LP","8.51632916846187","436.664","445.183","445.578","8.914","0.395","3","333",NA
"163","R_21gG1tW9TlSErH8","standard","2","94","LP","3.49090909090909","446.589","450.08","450.515","3.926","0.435","3","336",NA
"164","R_21gG1tW9TlSErH8","standard","2","95","LP","3.49090909090909","451.517","455.008","455.491","3.974","0.483","3","339",NA
"165","R_21gG1tW9TlSErH8","standard","2","96","LP","3.49090909090909","456.503","NaN","458.731","2.228","NaN","0","339",NA
"166","R_21gG1tW9TlSErH8","standard","2","97","LP","30","459.739","NaN","461.676","1.937","NaN","0","339",NA
"167","R_21gG1tW9TlSErH8","standard","2","98","LP","2.15079707022835","462.679","464.832","465.356","2.677","0.524","3","342",NA
"168","R_21gG1tW9TlSErH8","standard","2","99","LP","5.5010771219302","466.367","471.879","472.301","5.934","0.422","3","345",NA
"169","R_21gG1tW9TlSErH8","standard","2","100","LP","8.51632916846187","473.316","NaN","478.126","4.81","NaN","0","345",NA
"170","R_21gG1tW9TlSErH8","standard","2","101","LP","3.49090909090909","479.131","NaN","480.166","1.035","NaN","0","345",NA
"171","R_21gG1tW9TlSErH8","standard","2","102","LP","5.5010771219302","481.168","NaN","482.206","1.038","NaN","0","345",NA
"172","R_21gG1tW9TlSErH8","standard","2","103","LP","2.15079707022835","483.208","485.36","485.903","2.695","0.543","3","348",NA
"173","R_21gG1tW9TlSErH8","standard","2","104","LP","5.5010771219302","486.909","NaN","491.135","4.226","NaN","0","348",NA
"174","R_21gG1tW9TlSErH8","standard","2","105","LP","2.15079707022835","492.137","494.288","494.72","2.583","0.432","3","351",NA
"175","R_21gG1tW9TlSErH8","standard","2","106","LP","19.8235243429556","495.741","NaN","501.449","5.708","NaN","0","351",NA
"176","R_21gG1tW9TlSErH8","standard","2","107","LP","13.0392072382594","502.468","NaN","508.377","5.909","NaN","0","351",NA
"177","R_21gG1tW9TlSErH8","standard","2","108","LP","30","509.391","NaN","515.939","6.548","NaN","0","351",NA
"178","R_21gG1tW9TlSErH8","standard","2","109","LP","2.15079707022835","516.945","519.096",NA,"3.159",NA,"0","351",NA
"179","R_21gG1tW9TlSErH8","standard","2","110","LP","30","521.104","NaN","533.252","12.148","NaN","0","351",NA
"180","R_21gG1tW9TlSErH8","standard","2","111","LP","8.51632916846187","534.259","542.775","543.31","9.051","0.535","3","354",NA
"181","R_21gG1tW9TlSErH8","standard","2","112","LP","0.661783713916415","544.313","544.988",NA,"1.679",NA,"0","354",NA
"182","R_21gG1tW9TlSErH8","standard","2","113","LP","8.51632916846187","547","NaN","550.142","3.142","NaN","0","354",NA
"183","R_21gG1tW9TlSErH8","standard","2","114","LP","2.15079707022835","551.144","553.304","553.343","2.199","0.039","3","357",NA
"184","R_21gG1tW9TlSErH8","standard","2","115","LP","0.264713485566566","554.344","554.611","555.503","1.159","0.892","3","360",NA
"185","R_21gG1tW9TlSErH8","standard","2","116","LP","13.0392072382594","556.504","NaN","561.655","5.151","NaN","0","360",NA
"186","R_21gG1tW9TlSErH8","standard","2","117","LP","0.264713485566566","562.664","562.928",NA,"1.272",NA,"0","360",NA
"187","R_21gG1tW9TlSErH8","standard","2","118","LP","3.49090909090909","564.955","568.448","569.096","4.141","0.648","3","363",NA
"188","R_21gG1tW9TlSErH8","standard","2","119","LP","0.264713485566566","570.104","570.376","571.105","1.001","0.729","3","366",NA
"189","R_21gG1tW9TlSErH8","standard","2","120","LP","13.0392072382594","572.117","NaN","577.01","4.893","NaN","0","366",NA
"190","R_21gG1tW9TlSErH8","standard","2","121","LP","19.8235243429556","578.02","NaN","581.538","3.518","NaN","0","366",NA
"191","R_21gG1tW9TlSErH8","standard","2","122","LP","1.25738905644119","582.544","583.809","584.266","1.722","0.457","3","369",NA
"192","R_21gG1tW9TlSErH8","standard","2","123","LP","30","585.272","NaN","590.163","4.891","NaN","0","369",NA
"193","R_21gG1tW9TlSErH8","standard","2","124","LP","0.264713485566566","591.168","591.444","591.883","0.715","0.439","3","372",NA
"194","R_21gG1tW9TlSErH8","standard","2","125","LP","13.0392072382594","592.895","NaN","594.579","1.684","NaN","0","372",NA
"195","R_21gG1tW9TlSErH8","standard","2","126","LP","1.25738905644119","595.584","596.857","597.307","1.723","0.45","3","375",NA
