"","subject_id","condition","n_block","n_trialIdx","f_timing_condition","n_scheduled_delay","n_trial_start_time","n_rewarded_time_fin","n_sell_time_fin","n_time_waited_fin","RT_fin","n_trial_earnings_fin","n_total_earnings_fin","keypress_times"
"1","R_25X92ADcKK2z4QC","standard","1","1","LP","1.25738905644119","0.005","1.263","1.978","1.973","0.715","3","3",""
"2","R_25X92ADcKK2z4QC","standard","1","2","LP","5.5010771219302","2.983","8.493","9.109","6.126","0.616","3","6",""
"3","R_25X92ADcKK2z4QC","standard","1","3","LP","3.49090909090909","10.128","13.624","14.277","4.149","0.653","3","9",""
"4","R_25X92ADcKK2z4QC","standard","1","4","LP","3.49090909090909","15.292","18.792","19.475","4.183","0.683","3","12",""
"5","R_25X92ADcKK2z4QC","standard","1","5","LP","19.8235243429556","20.492","40.325","41.011","20.519","0.686","3","15",""
"6","R_25X92ADcKK2z4QC","standard","1","6","LP","19.8235243429556","42.015","61.839","62.506","20.491","0.667","3","18",""
"7","R_25X92ADcKK2z4QC","standard","1","7","LP","1.25738905644119","63.528","64.791","65.576","2.048","0.785","3","21",""
"8","R_25X92ADcKK2z4QC","standard","1","8","LP","2.15079707022835","66.592","68.752","69.482","2.89","0.73","3","24",""
"9","R_25X92ADcKK2z4QC","standard","1","9","LP","19.8235243429556","70.49","90.322","91.037","20.547","0.715","3","27",""
"10","R_25X92ADcKK2z4QC","standard","1","10","LP","0.661783713916415","92.04","92.705","NA","1.684","NA","0","27",""
"11","R_25X92ADcKK2z4QC","standard","1","11","LP","1.25738905644119","94.726","95.991","96.857","2.131","0.866","3","30",""
"12","R_25X92ADcKK2z4QC","standard","1","12","LP","3.49090909090909","97.864","101.361","102.059","4.195","0.698","3","33",""
"13","R_25X92ADcKK2z4QC","standard","1","13","LP","13.0392072382594","103.073","116.123","116.762","13.689","0.639","3","36",""
"14","R_25X92ADcKK2z4QC","standard","1","14","LP","8.51632916846187","117.768","126.29","126.991","9.223","0.701","3","39",""
"15","R_25X92ADcKK2z4QC","standard","1","15","LP","30","128.005","158.021","158.672","30.667","0.651","3","42",""
"16","R_25X92ADcKK2z4QC","standard","1","16","LP","13.0392072382594","159.688","172.729","173.389","13.701","0.66","3","45",""
"17","R_25X92ADcKK2z4QC","standard","1","17","LP","1.25738905644119","174.421","175.688","176.367","1.946","0.679","3","48",""
"18","R_25X92ADcKK2z4QC","standard","1","18","LP","0.661783713916415","177.37","178.034","178.798","1.428","0.764","3","51",""
"19","R_25X92ADcKK2z4QC","standard","1","19","LP","13.0392072382594","179.804","192.849","193.528","13.724","0.679","3","54",""
"20","R_25X92ADcKK2z4QC","standard","1","20","LP","0.264713485566566","194.53","194.804","195.473","0.943","0.669","3","57",""
"21","R_25X92ADcKK2z4QC","standard","1","21","LP","3.49090909090909","196.503","200.004","200.808","4.305","0.804","3","60",""
"22","R_25X92ADcKK2z4QC","standard","1","22","LP","19.8235243429556","201.82","221.648","222.359","20.539","0.711","3","63",""
"23","R_25X92ADcKK2z4QC","standard","1","23","LP","1.25738905644119","223.362","224.62","225.335","1.973","0.715","3","66",""
"24","R_25X92ADcKK2z4QC","standard","1","24","LP","3.49090909090909","226.337","229.833","230.57","4.233","0.737","3","69",""
"25","R_25X92ADcKK2z4QC","standard","1","25","LP","3.49090909090909","231.576","235.086","235.8","4.224","0.714","3","72",""
"26","R_25X92ADcKK2z4QC","standard","1","26","LP","13.0392072382594","236.817","249.864","250.501","13.684","0.637","3","75",""
"27","R_25X92ADcKK2z4QC","standard","1","27","LP","8.51632916846187","251.517","260.035","260.729","9.212","0.694","3","78",""
"28","R_25X92ADcKK2z4QC","standard","1","28","LP","19.8235243429556","261.734","281.561","282.451","20.717","0.89","3","81",""
"29","R_25X92ADcKK2z4QC","standard","1","29","LP","0.661783713916415","283.458","284.122","NA","1.672","NA","0","81",""
"30","R_25X92ADcKK2z4QC","standard","1","30","LP","5.5010771219302","286.138","291.642","292.455","6.317","0.813","3","84",""
"31","R_25X92ADcKK2z4QC","standard","1","31","LP","30","293.458","323.465","324.083","30.625","0.618","3","87",""
"32","R_25X92ADcKK2z4QC","standard","1","32","LP","19.8235243429556","325.098","344.93","345.696","20.598","0.766","3","90",""
"33","R_25X92ADcKK2z4QC","standard","1","33","LP","30","346.712","376.715","377.357","30.645","0.642","3","93",""
"34","R_25X92ADcKK2z4QC","standard","1","34","LP","19.8235243429556","378.415","398.243","398.95","20.535","0.707","3","96",""
"35","R_25X92ADcKK2z4QC","standard","1","35","LP","3.49090909090909","399.953","403.45","404.167","4.214","0.717","3","99",""
"36","R_25X92ADcKK2z4QC","standard","1","36","LP","8.51632916846187","405.17","413.758","414.519","9.349","0.761","3","102",""
"37","R_25X92ADcKK2z4QC","standard","1","37","LP","3.49090909090909","415.523","419.013","419.969","4.446","0.956","3","105",""
"38","R_25X92ADcKK2z4QC","standard","1","38","LP","19.8235243429556","420.971","440.812","441.51","20.539","0.698","3","108",""
"39","R_25X92ADcKK2z4QC","standard","1","39","LP","13.0392072382594","442.53","455.571","456.254","13.724","0.683","3","111",""
"40","R_25X92ADcKK2z4QC","standard","1","40","LP","0.264713485566566","457.259","457.528","458.298","1.039","0.77","3","114",""
"41","R_25X92ADcKK2z4QC","standard","1","41","LP","30","459.31","489.313","490.01","30.7","0.697","3","114","11870"
"42","R_25X92ADcKK2z4QC","standard","1","42","LP","8.51632916846187","491.03","499.555","500.31","9.28","0.755","3","117",""
"43","R_25X92ADcKK2z4QC","standard","1","43","LP","30","501.329","531.331","532.022","30.693","0.691","3","120",""
"44","R_25X92ADcKK2z4QC","standard","1","44","LP","3.49090909090909","533.028","536.524","537.308","4.28","0.784","3","123",""
"45","R_25X92ADcKK2z4QC","standard","1","45","LP","5.5010771219302","538.326","543.835","544.761","6.435","0.926","3","126",""
"46","R_25X92ADcKK2z4QC","standard","1","46","LP","3.49090909090909","545.763","549.258","550.06","4.297","0.802","3","129",""
"47","R_25X92ADcKK2z4QC","standard","1","47","LP","8.51632916846187","551.075","559.609","560.324","9.249","0.715","3","132",""
"48","R_25X92ADcKK2z4QC","standard","1","48","LP","8.51632916846187","561.326","569.851","570.489","9.163","0.638","3","135",""
"49","R_25X92ADcKK2z4QC","standard","1","49","LP","19.8235243429556","571.506","591.331","592.053","20.547","0.722","3","138",""
"50","R_25X92ADcKK2z4QC","standard","1","50","LP","2.15079707022835","593.058","595.222","595.94","2.882","0.718","3","141",""
"51","R_25X92ADcKK2z4QC","standard","1","51","LP","5.5010771219302","596.941","602.442","603.168","6.227","0.726","3","144",""
"52","R_25X92ADcKK2z4QC","standard","1","52","LP","1.25738905644119","604.189","605.451","606.149","1.96","0.698","3","147",""
"53","R_25X92ADcKK2z4QC","standard","1","53","LP","13.0392072382594","607.157","620.205","620.93","13.773","0.725","3","150",""
"54","R_25X92ADcKK2z4QC","standard","1","54","LP","13.0392072382594","621.931","634.97","635.677","13.746","0.707","3","153",""
"55","R_25X92ADcKK2z4QC","standard","1","55","LP","3.49090909090909","636.683","640.188","640.87","4.187","0.682","3","156",""
"56","R_25X92ADcKK2z4QC","standard","1","56","LP","1.25738905644119","641.889","643.155","643.955","2.066","0.8","3","159",""
"57","R_25X92ADcKK2z4QC","standard","1","57","LP","0.264713485566566","644.957","645.223","645.964","1.007","0.741","3","162",""
"58","R_25X92ADcKK2z4QC","standard","1","58","LP","2.15079707022835","646.971","649.124","649.852","2.881","0.728","3","165",""
"59","R_25X92ADcKK2z4QC","standard","1","59","LP","0.264713485566566","650.86","651.131","651.972","1.112","0.841","3","168",""
"60","R_25X92ADcKK2z4QC","standard","1","60","LP","13.0392072382594","652.987","666.034","666.77","13.783","0.736","3","171",""
"61","R_25X92ADcKK2z4QC","standard","1","61","LP","30","667.785","697.802","698.376","30.591","0.574","3","174",""
"62","R_25X92ADcKK2z4QC","standard","1","62","LP","0.661783713916415","699.415","700.085","700.77","1.355","0.685","3","177",""
"63","R_25X92ADcKK2z4QC","standard","1","63","LP","2.15079707022835","701.785","703.937","704.586","2.801","0.649","3","180",""
"64","R_25X92ADcKK2z4QC","standard","1","64","LP","3.49090909090909","705.615","709.118","709.99","4.375","0.872","3","183",""
"65","R_25X92ADcKK2z4QC","standard","1","65","LP","1.25738905644119","711.016","712.285","712.969","1.953","0.684","3","186",""
"66","R_25X92ADcKK2z4QC","standard","1","66","LP","0.264713485566566","713.985","714.258","715.046","1.061","0.788","3","189",""
"67","R_25X92ADcKK2z4QC","standard","1","67","LP","1.25738905644119","716.051","717.32","718.127","2.076","0.807","3","192",""
"68","R_25X92ADcKK2z4QC","standard","1","68","LP","19.8235243429556","719.131","738.965","739.599","20.468","0.634","3","195",""
"69","R_25X92ADcKK2z4QC","standard","1","69","LP","3.49090909090909","740.616","744.115","744.797","4.181","0.682","3","198",""
"70","R_25X92ADcKK2z4QC","standard","1","70","LP","30","745.806","775.815","776.468","30.662","0.653","3","201",""
"71","R_25X92ADcKK2z4QC","standard","1","71","LP","13.0392072382594","777.484","790.535","791.314","13.83","0.779","3","204",""
"72","R_25X92ADcKK2z4QC","standard","1","72","LP","0.264713485566566","792.332","792.616","793.356","1.024","0.74","3","207",""
"73","R_25X92ADcKK2z4QC","standard","1","73","LP","13.0392072382594","794.363","807.415","808.184","13.821","0.769","3","210",""
"74","R_25X92ADcKK2z4QC","standard","1","74","LP","5.5010771219302","809.198","814.714","815.482","6.284","0.768","3","213",""
"75","R_25X92ADcKK2z4QC","standard","1","75","LP","0.264713485566566","816.513","816.782","817.658","1.145","0.876","3","216",""
"76","R_25X92ADcKK2z4QC","standard","1","76","LP","0.661783713916415","818.662","819.333","819.998","1.336","0.665","3","219",""
"77","R_25X92ADcKK2z4QC","standard","1","77","LP","19.8235243429556","821.014","840.84","841.561","20.547","0.721","3","222",""
"78","R_25X92ADcKK2z4QC","standard","1","78","LP","8.51632916846187","842.563","851.093","851.908","9.345","0.815","3","225",""
"79","R_25X92ADcKK2z4QC","standard","1","79","LP","3.49090909090909","852.929","856.425","857.168","4.239","0.743","3","228",""
"80","R_25X92ADcKK2z4QC","standard","1","80","LP","3.49090909090909","858.168","861.678","862.309","4.141","0.631","3","231",""
"81","R_25X92ADcKK2z4QC","standard","1","81","LP","13.0392072382594","863.332","876.377","877.082","13.75","0.705","3","234",""
"82","R_25X92ADcKK2z4QC","standard","1","82","LP","19.8235243429556","878.091","897.922","898.599","20.508","0.677","3","237",""
"83","R_25X92ADcKK2z4QC","standard","2","1","LP","5.5010771219302","0.001","5.518","6.247","6.246","0.729","3","240",NA
"84","R_25X92ADcKK2z4QC","standard","2","2","LP","8.51632916846187","7.247","15.777","16.523","9.276","0.746","3","243",NA
"85","R_25X92ADcKK2z4QC","standard","2","3","LP","5.5010771219302","17.528","23.031","23.748","6.22","0.717","3","246",NA
"86","R_25X92ADcKK2z4QC","standard","2","4","LP","3.49090909090909","24.751","28.246","28.98","4.229","0.734","3","249",NA
"87","R_25X92ADcKK2z4QC","standard","2","5","LP","0.264713485566566","29.993","30.276","31.06","1.067","0.784","3","252",NA
"88","R_25X92ADcKK2z4QC","standard","2","6","LP","30","32.077","NaN","56.75","24.673","NaN","0","252",NA
"89","R_25X92ADcKK2z4QC","standard","2","7","LP","30","57.758","NaN","67.539","9.781","NaN","0","252",NA
"90","R_25X92ADcKK2z4QC","standard","2","8","LP","3.49090909090909","68.542","72.037","72.791","4.249","0.754","3","255",NA
"91","R_25X92ADcKK2z4QC","standard","2","9","LP","0.661783713916415","73.806","74.475","75.231","1.425","0.756","3","258",NA
"92","R_25X92ADcKK2z4QC","standard","2","10","LP","19.8235243429556","76.239","NaN","89.674","13.435","NaN","0","258",NA
"93","R_25X92ADcKK2z4QC","standard","2","11","LP","3.49090909090909","90.705","94.206","94.89","4.185","0.684","3","261",NA
"94","R_25X92ADcKK2z4QC","standard","2","12","LP","0.661783713916415","95.907","96.59","97.273","1.366","0.683","3","264",NA
"95","R_25X92ADcKK2z4QC","standard","2","13","LP","3.49090909090909","98.289","101.789","102.54","4.251","0.751","3","267",NA
"96","R_25X92ADcKK2z4QC","standard","2","14","LP","0.264713485566566","103.543","103.825","104.714","1.171","0.889","3","270",NA
"97","R_25X92ADcKK2z4QC","standard","2","15","LP","5.5010771219302","105.719","111.224","111.875","6.156","0.651","3","273",NA
"98","R_25X92ADcKK2z4QC","standard","2","16","LP","0.661783713916415","112.889","113.573","114.325","1.436","0.752","3","276",NA
"99","R_25X92ADcKK2z4QC","standard","2","17","LP","30","115.326","NaN","130.735","15.409","NaN","0","276",NA
"100","R_25X92ADcKK2z4QC","standard","2","18","LP","0.661783713916415","131.751","132.42","133.11","1.359","0.69","3","279",NA
"101","R_25X92ADcKK2z4QC","standard","2","19","LP","3.49090909090909","134.119","137.623","138.275","4.156","0.652","3","282",NA
"102","R_25X92ADcKK2z4QC","standard","2","20","LP","1.25738905644119","139.288","140.55","141.273","1.985","0.723","3","285",NA
"103","R_25X92ADcKK2z4QC","standard","2","21","LP","5.5010771219302","142.279","147.785","148.455","6.176","0.67","3","288",NA
"104","R_25X92ADcKK2z4QC","standard","2","22","LP","1.25738905644119","149.469","150.732","151.486","2.017","0.754","3","291",NA
"105","R_25X92ADcKK2z4QC","standard","2","23","LP","5.5010771219302","152.504","158.023","158.75","6.246","0.727","3","294",NA
"106","R_25X92ADcKK2z4QC","standard","2","24","LP","19.8235243429556","159.769","NaN","170.568","10.799","NaN","0","294",NA
"107","R_25X92ADcKK2z4QC","standard","2","25","LP","3.49090909090909","171.584","175.085","175.785","4.201","0.7","3","297",NA
"108","R_25X92ADcKK2z4QC","standard","2","26","LP","0.264713485566566","176.797","177.068","177.783","0.986","0.715","3","300",NA
"109","R_25X92ADcKK2z4QC","standard","2","27","LP","30","178.8","NaN","191.881","13.081","NaN","0","300",NA
"110","R_25X92ADcKK2z4QC","standard","2","28","LP","0.661783713916415","192.899","193.568","194.251","1.352","0.683","3","303",NA
"111","R_25X92ADcKK2z4QC","standard","2","29","LP","8.51632916846187","195.261","203.8","204.647","9.386","0.847","3","306",NA
"112","R_25X92ADcKK2z4QC","standard","2","30","LP","0.661783713916415","205.653","206.316","207.159","1.506","0.843","3","309",NA
"113","R_25X92ADcKK2z4QC","standard","2","31","LP","3.49090909090909","208.165","211.66",NA,"4.518",NA,"0","309",NA
"114","R_25X92ADcKK2z4QC","standard","2","32","LP","5.5010771219302","213.684","219.199","219.849","6.165","0.65","3","312",NA
"115","R_25X92ADcKK2z4QC","standard","2","33","LP","8.51632916846187","220.866","229.389","230.098","9.232","0.709","3","315",NA
"116","R_25X92ADcKK2z4QC","standard","2","34","LP","19.8235243429556","231.113","NaN","241.766","10.653","NaN","0","315",NA
"117","R_25X92ADcKK2z4QC","standard","2","35","LP","30","242.781","NaN","254.864","12.083","NaN","0","315",NA
"118","R_25X92ADcKK2z4QC","standard","2","36","LP","1.25738905644119","255.881","257.14","257.812","1.931","0.672","3","318",NA
"119","R_25X92ADcKK2z4QC","standard","2","37","LP","8.51632916846187","258.816","267.331","268.043","9.227","0.712","3","321",NA
"120","R_25X92ADcKK2z4QC","standard","2","38","LP","13.0392072382594","269.048","NaN","281.298","12.25","NaN","0","321",NA
"121","R_25X92ADcKK2z4QC","standard","2","39","LP","0.264713485566566","282.312","282.594","283.273","0.961","0.679","3","324",NA
"122","R_25X92ADcKK2z4QC","standard","2","40","LP","0.661783713916415","284.295","284.964","285.72","1.425","0.756","3","327",NA
"123","R_25X92ADcKK2z4QC","standard","2","41","LP","5.5010771219302","286.724","292.229","292.961","6.237","0.732","3","330",NA
"124","R_25X92ADcKK2z4QC","standard","2","42","LP","30","293.978","NaN","307.718","13.74","NaN","0","330",NA
"125","R_25X92ADcKK2z4QC","standard","2","43","LP","0.264713485566566","308.724","309.01","309.711","0.987","0.701","3","333",NA
"126","R_25X92ADcKK2z4QC","standard","2","44","LP","3.49090909090909","310.712","314.221","314.944","4.232","0.723","3","336",NA
"127","R_25X92ADcKK2z4QC","standard","2","45","LP","5.5010771219302","315.948","321.452","322.145","6.197","0.693","3","339",NA
"128","R_25X92ADcKK2z4QC","standard","2","46","LP","13.0392072382594","323.156","336.195","336.915","13.759","0.72","3","342",NA
"129","R_25X92ADcKK2z4QC","standard","2","47","LP","19.8235243429556","337.924","NaN","353.655","15.731","NaN","0","342",NA
"130","R_25X92ADcKK2z4QC","standard","2","48","LP","1.25738905644119","354.659","355.923","356.659","2","0.736","3","345",NA
"131","R_25X92ADcKK2z4QC","standard","2","49","LP","3.49090909090909","357.66","361.156","361.845","4.185","0.689","3","348",NA
"132","R_25X92ADcKK2z4QC","standard","2","50","LP","0.661783713916415","362.851","363.516","364.323","1.472","0.807","3","351",NA
"133","R_25X92ADcKK2z4QC","standard","2","51","LP","8.51632916846187","365.324","373.843","374.663","9.339","0.82","3","354",NA
"134","R_25X92ADcKK2z4QC","standard","2","52","LP","30","375.667","NaN","394.728","19.061","NaN","0","354",NA
"135","R_25X92ADcKK2z4QC","standard","2","53","LP","8.51632916846187","395.731","404.257","404.958","9.227","0.701","3","357",NA
"136","R_25X92ADcKK2z4QC","standard","2","54","LP","30","405.973","NaN","416.772","10.799","NaN","0","357",NA
"137","R_25X92ADcKK2z4QC","standard","2","55","LP","30","417.788","NaN","426.674","8.886","NaN","0","357",NA
"138","R_25X92ADcKK2z4QC","standard","2","56","LP","0.661783713916415","427.703","428.373","429.121","1.418","0.748","3","360",NA
"139","R_25X92ADcKK2z4QC","standard","2","57","LP","0.661783713916415","430.122","430.788","431.408","1.286","0.62","3","363",NA
"140","R_25X92ADcKK2z4QC","standard","2","58","LP","2.15079707022835","432.41","434.573","435.237","2.827","0.664","3","366",NA
"141","R_25X92ADcKK2z4QC","standard","2","59","LP","8.51632916846187","436.242","NaN","443.357","7.115","NaN","0","366",NA
"142","R_25X92ADcKK2z4QC","standard","2","60","LP","30","444.372","NaN","451.473","7.101","NaN","0","366",NA
"143","R_25X92ADcKK2z4QC","standard","2","61","LP","13.0392072382594","452.505","NaN","459.303","6.798","NaN","0","366",NA
"144","R_25X92ADcKK2z4QC","standard","2","62","LP","8.51632916846187","460.307","NaN","467.772","7.465","NaN","0","366",NA
"145","R_25X92ADcKK2z4QC","standard","2","63","LP","0.661783713916415","468.789","469.452","470.125","1.336","0.673","3","369",NA
"146","R_25X92ADcKK2z4QC","standard","2","64","LP","0.661783713916415","471.131","471.803","472.557","1.426","0.754","3","372",NA
"147","R_25X92ADcKK2z4QC","standard","2","65","LP","5.5010771219302","473.572","479.088","479.928","6.356","0.84","3","375",NA
"148","R_25X92ADcKK2z4QC","standard","2","66","LP","19.8235243429556","480.932","NaN","491.462","10.53","NaN","0","375",NA
"149","R_25X92ADcKK2z4QC","standard","2","67","LP","5.5010771219302","492.471","497.988","498.63","6.159","0.642","3","378",NA
"150","R_25X92ADcKK2z4QC","standard","2","68","LP","5.5010771219302","499.636","505.14","505.785","6.149","0.645","3","381",NA
"151","R_25X92ADcKK2z4QC","standard","2","69","LP","2.15079707022835","506.802","508.97","509.672","2.87","0.702","3","384",NA
"152","R_25X92ADcKK2z4QC","standard","2","70","LP","13.0392072382594","510.702","NaN","520.15","9.448","NaN","0","384",NA
"153","R_25X92ADcKK2z4QC","standard","2","71","LP","3.49090909090909","521.169","524.668","525.381","4.212","0.713","3","387",NA
"154","R_25X92ADcKK2z4QC","standard","2","72","LP","2.15079707022835","526.402","528.556","529.316","2.914","0.76","3","390",NA
"155","R_25X92ADcKK2z4QC","standard","2","73","LP","5.5010771219302","530.326","535.828","536.609","6.283","0.781","3","393",NA
"156","R_25X92ADcKK2z4QC","standard","2","74","LP","8.51632916846187","537.622","NaN","544.07","6.448","NaN","0","393",NA
"157","R_25X92ADcKK2z4QC","standard","2","75","LP","19.8235243429556","545.086","NaN","548.985","3.899","NaN","0","393",NA
"158","R_25X92ADcKK2z4QC","standard","2","76","LP","5.5010771219302","550.001","NaN","554.832","4.831","NaN","0","393",NA
"159","R_25X92ADcKK2z4QC","standard","2","77","LP","2.15079707022835","555.836","558.002","558.633","2.797","0.631","3","396",NA
"160","R_25X92ADcKK2z4QC","standard","2","78","LP","0.661783713916415","559.636","560.299","561.023","1.387","0.724","3","399",NA
"161","R_25X92ADcKK2z4QC","standard","2","79","LP","3.49090909090909","562.03","565.574","566.242","4.212","0.668","3","402",NA
"162","R_25X92ADcKK2z4QC","standard","2","80","LP","19.8235243429556","567.243","NaN","570.312","3.069","NaN","0","402",NA
"163","R_25X92ADcKK2z4QC","standard","2","81","LP","0.661783713916415","571.316","571.983","572.632","1.316","0.649","3","405",NA
"164","R_25X92ADcKK2z4QC","standard","2","82","LP","19.8235243429556","573.636","NaN","579.599","5.963","NaN","0","405",NA
"165","R_25X92ADcKK2z4QC","standard","2","83","LP","1.25738905644119","580.629","581.898","582.599","1.97","0.701","3","408",NA
"166","R_25X92ADcKK2z4QC","standard","2","84","LP","0.264713485566566","583.615","583.883","584.534","0.919","0.651","3","411",NA
"167","R_25X92ADcKK2z4QC","standard","2","85","LP","8.51632916846187","585.601","NaN","588.998","3.397","NaN","0","411",NA
"168","R_25X92ADcKK2z4QC","standard","2","86","LP","30","590.017","NaN","592.948","2.931","NaN","0","411",NA
