"","subject_id","condition","n_block","n_trialIdx","f_timing_condition","n_scheduled_delay","n_trial_start_time","n_rewarded_time_fin","n_sell_time_fin","n_time_waited_fin","RT_fin","n_trial_earnings_fin","n_total_earnings_fin","keypress_times"
"1","R_272LzGG1LoOL3K6","standard","1","1","HP","8","0.001","8.012","8.726","8.725","0.714","3","3",""
"2","R_272LzGG1LoOL3K6","standard","1","2","HP","18","9.737","27.743","28.211","18.474","0.468","3","6",""
"3","R_272LzGG1LoOL3K6","standard","1","3","HP","8","29.213","37.226","37.767","8.554","0.541","3","9",""
"4","R_272LzGG1LoOL3K6","standard","1","4","HP","4","38.776","42.792","43.747","4.971","0.955","3","12",""
"5","R_272LzGG1LoOL3K6","standard","1","5","HP","18","44.752","62.767","63.147","18.395","0.38","3","15",""
"6","R_272LzGG1LoOL3K6","standard","1","6","HP","14","64.151","78.17","78.662","14.511","0.492","3","18",""
"7","R_272LzGG1LoOL3K6","standard","1","7","HP","20","79.677","99.691","100.053","20.376","0.362","3","21",""
"8","R_272LzGG1LoOL3K6","standard","1","8","HP","18","101.066","119.07","119.493","18.427","0.423","3","24",""
"9","R_272LzGG1LoOL3K6","standard","1","9","HP","16","120.512","136.514","137.083","16.571","0.569","3","27",""
"10","R_272LzGG1LoOL3K6","standard","1","10","HP","10","138.087","148.102","148.647","10.56","0.545","3","30",""
"11","R_272LzGG1LoOL3K6","standard","1","11","HP","18","149.668","167.672","168.263","18.595","0.591","3","33",""
"12","R_272LzGG1LoOL3K6","standard","1","12","HP","4","169.28","173.295","173.983","4.703","0.688","3","36",""
"13","R_272LzGG1LoOL3K6","standard","1","13","HP","12","174.992","186.998","187.536","12.544","0.538","3","39",""
"14","R_272LzGG1LoOL3K6","standard","1","14","HP","8","188.545","196.554","197.098","8.553","0.544","3","42",""
"15","R_272LzGG1LoOL3K6","standard","1","15","HP","18","198.102","216.119","216.576","18.474","0.457","3","45",""
"16","R_272LzGG1LoOL3K6","standard","1","16","HP","6","217.584","223.595","224.081","6.497","0.486","3","48",""
"17","R_272LzGG1LoOL3K6","standard","1","17","HP","14","225.095","239.098","239.658","14.563","0.56","3","51",""
"18","R_272LzGG1LoOL3K6","standard","1","18","HP","14","240.669","254.681","255.332","14.663","0.651","3","54",""
"19","R_272LzGG1LoOL3K6","standard","1","19","HP","8","256.336","264.345","264.93","8.594","0.585","3","57",""
"20","R_272LzGG1LoOL3K6","standard","1","20","HP","16","265.936","281.944","282.367","16.431","0.423","3","60",""
"21","R_272LzGG1LoOL3K6","standard","1","21","HP","8","283.377","291.387","291.911","8.534","0.524","3","63",""
"22","R_272LzGG1LoOL3K6","standard","1","22","HP","18","292.912","310.917","311.518","18.606","0.601","3","66",""
"23","R_272LzGG1LoOL3K6","standard","1","23","HP","18","312.53","330.539","331.093","18.563","0.554","3","69",""
"24","R_272LzGG1LoOL3K6","standard","1","24","HP","14","332.106","346.123","346.607","14.501","0.484","3","72",""
"25","R_272LzGG1LoOL3K6","standard","1","25","HP","14","347.608","361.61","362.142","14.534","0.532","3","75",""
"26","R_272LzGG1LoOL3K6","standard","1","26","HP","2","363.159","365.163","365.864","2.705","0.701","3","78",""
"27","R_272LzGG1LoOL3K6","standard","1","27","HP","2","366.871","368.887","369.355","2.484","0.468","3","81",""
"28","R_272LzGG1LoOL3K6","standard","1","28","HP","4","370.367","374.38","374.976","4.609","0.596","3","84",""
"29","R_272LzGG1LoOL3K6","standard","1","29","HP","2","375.997","378.01","378.886","2.889","0.876","3","87",""
"30","R_272LzGG1LoOL3K6","standard","1","30","HP","20","379.899","399.914","400.377","20.478","0.463","3","87","16918"
"31","R_272LzGG1LoOL3K6","standard","1","31","HP","8","401.389","409.4","NA","9.023","NA","0","87",""
"32","R_272LzGG1LoOL3K6","standard","1","32","HP","18","411.413","429.425","429.962","18.549","0.537","3","90",""
"33","R_272LzGG1LoOL3K6","standard","1","33","HP","12","430.975","442.997","443.489","12.514","0.492","3","93",""
"34","R_272LzGG1LoOL3K6","standard","1","34","HP","20","444.497","464.509","465.129","20.632","0.62","3","93","17753"
"35","R_272LzGG1LoOL3K6","standard","1","35","HP","10","466.131","476.15","476.6","10.469","0.45","3","96",""
"36","R_272LzGG1LoOL3K6","standard","1","36","HP","18","477.612","495.628","496.346","18.734","0.718","3","99",""
"37","R_272LzGG1LoOL3K6","standard","1","37","HP","20","497.35","517.373","517.824","20.474","0.451","3","102",""
"38","R_272LzGG1LoOL3K6","standard","1","38","HP","6","518.83","524.839","525.327","6.497","0.488","3","105",""
"39","R_272LzGG1LoOL3K6","standard","1","39","HP","4","526.335","530.344","530.86","4.525","0.516","3","108",""
"40","R_272LzGG1LoOL3K6","standard","1","40","HP","10","531.868","541.883","542.568","10.7","0.685","3","111",""
"41","R_272LzGG1LoOL3K6","standard","1","41","HP","18","543.582","561.597","562.165","18.583","0.568","3","114",""
"42","R_272LzGG1LoOL3K6","standard","1","42","HP","6","563.183","569.197","569.626","6.443","0.429","3","117",""
"43","R_272LzGG1LoOL3K6","standard","1","43","HP","20","570.629","590.651","591.068","20.439","0.417","3","120",""
"44","R_272LzGG1LoOL3K6","standard","1","44","HP","16","592.075","608.087","608.903","16.828","0.816","3","123",""
"45","R_272LzGG1LoOL3K6","standard","1","45","HP","4","609.917","613.928","614.741","4.824","0.813","3","126",""
"46","R_272LzGG1LoOL3K6","standard","1","46","HP","10","615.75","625.757","626.435","10.685","0.678","3","129",""
"47","R_272LzGG1LoOL3K6","standard","1","47","HP","6","627.439","633.462","634.061","6.622","0.599","3","132",""
"48","R_272LzGG1LoOL3K6","standard","1","48","HP","14","635.076","649.078","649.69","14.614","0.612","3","135",""
"49","R_272LzGG1LoOL3K6","standard","1","49","HP","8","650.695","658.702","659.312","8.617","0.61","3","138",""
"50","R_272LzGG1LoOL3K6","standard","1","50","HP","18","660.32","678.332","679.16","18.84","0.828","3","141",""
"51","R_272LzGG1LoOL3K6","standard","1","51","HP","10","680.172","690.188","690.954","10.782","0.766","3","144",""
"52","R_272LzGG1LoOL3K6","standard","1","52","HP","10","691.97","701.981","702.531","10.561","0.55","3","147",""
"53","R_272LzGG1LoOL3K6","standard","1","53","HP","2","703.541","705.546","706.15","2.609","0.604","3","150",""
"54","R_272LzGG1LoOL3K6","standard","1","54","HP","20","707.161","727.168","727.555","20.394","0.387","3","153",""
"55","R_272LzGG1LoOL3K6","standard","1","55","HP","18","728.557","746.567","747.034","18.477","0.467","3","156",""
"56","R_272LzGG1LoOL3K6","standard","1","56","HP","10","748.038","758.045","758.942","10.904","0.897","3","159",""
"57","R_272LzGG1LoOL3K6","standard","1","57","HP","12","759.943","771.948","772.423","12.48","0.475","3","162",""
"58","R_272LzGG1LoOL3K6","standard","1","58","HP","6","773.43","779.44","NA","7.02","NA","0","162",""
"59","R_272LzGG1LoOL3K6","standard","1","59","HP","14","781.457","795.469","795.905","14.448","0.436","3","165",""
"60","R_272LzGG1LoOL3K6","standard","1","60","HP","2","796.918","798.919","799.466","2.548","0.547","3","168",""
"61","R_272LzGG1LoOL3K6","standard","1","61","HP","12","800.48","812.491","NA","13.023","NA","0","168",""
"62","R_272LzGG1LoOL3K6","standard","1","62","HP","10","814.518","824.526","824.965","10.447","0.439","3","168","5600"
"63","R_272LzGG1LoOL3K6","standard","1","63","HP","10","825.979","835.994","836.522","10.543","0.528","3","171",""
"64","R_272LzGG1LoOL3K6","standard","1","64","HP","18","837.529","855.542","856.424","18.895","0.882","3","174",""
"65","R_272LzGG1LoOL3K6","standard","1","65","HP","12","857.431","869.435","870.083","12.652","0.648","3","177",""
"66","R_272LzGG1LoOL3K6","standard","1","66","HP","16","871.086","887.097","NA","17.026","NA","0","177",""
"67","R_272LzGG1LoOL3K6","standard","2","1","LP","0.661783713916415","0.001","NaN","0.647","0.646","NaN","0","177",NA
"68","R_272LzGG1LoOL3K6","standard","2","2","LP","2.15079707022835","1.652","NaN","2.214","0.562","NaN","0","177",NA
"69","R_272LzGG1LoOL3K6","standard","2","3","LP","1.25738905644119","3.215","NaN","3.653","0.438","NaN","0","177",NA
"70","R_272LzGG1LoOL3K6","standard","2","4","LP","2.15079707022835","4.668","6.825","7.329","2.661","0.504","3","180",NA
"71","R_272LzGG1LoOL3K6","standard","2","5","LP","19.8235243429556","8.346","28.178","28.563","20.217","0.385","3","183",NA
"72","R_272LzGG1LoOL3K6","standard","2","6","LP","0.264713485566566","29.57","29.841","30.348","0.778","0.507","3","186",NA
"73","R_272LzGG1LoOL3K6","standard","2","7","LP","2.15079707022835","31.35","33.506","33.937","2.587","0.431","3","189",NA
"74","R_272LzGG1LoOL3K6","standard","2","8","LP","1.25738905644119","34.946","36.214","36.863","1.917","0.649","3","192",NA
"75","R_272LzGG1LoOL3K6","standard","2","9","LP","19.8235243429556","37.877","57.708","58.3","20.423","0.592","3","195",NA
"76","R_272LzGG1LoOL3K6","standard","2","10","LP","19.8235243429556","59.307","79.136","79.593","20.286","0.457","3","198",NA
"77","R_272LzGG1LoOL3K6","standard","2","11","LP","19.8235243429556","80.603","100.433","100.87","20.267","0.437","3","201",NA
"78","R_272LzGG1LoOL3K6","standard","2","12","LP","8.51632916846187","101.881","110.406","111.085","9.204","0.679","3","204",NA
"79","R_272LzGG1LoOL3K6","standard","2","13","LP","19.8235243429556","112.104","131.934","132.367","20.263","0.433","3","207",NA
"80","R_272LzGG1LoOL3K6","standard","2","14","LP","8.51632916846187","133.379","141.908","142.378","8.999","0.47","3","210",NA
"81","R_272LzGG1LoOL3K6","standard","2","15","LP","19.8235243429556","143.39","NaN","145.536","2.146","NaN","0","210",NA
"82","R_272LzGG1LoOL3K6","standard","2","16","LP","5.5010771219302","146.544","152.057","152.483","5.939","0.426","3","213",NA
"83","R_272LzGG1LoOL3K6","standard","2","17","LP","0.661783713916415","153.499","154.18","154.73","1.231","0.55","3","216",NA
"84","R_272LzGG1LoOL3K6","standard","2","18","LP","2.15079707022835","155.735","157.899","158.409","2.674","0.51","3","219",NA
"85","R_272LzGG1LoOL3K6","standard","2","19","LP","5.5010771219302","159.41","164.92","165.369","5.959","0.449","3","222",NA
"86","R_272LzGG1LoOL3K6","standard","2","20","LP","0.661783713916415","166.385","167.059","167.455","1.07","0.396","3","225",NA
"87","R_272LzGG1LoOL3K6","standard","2","21","LP","19.8235243429556","168.466","188.296","188.931","20.465","0.635","3","228",NA
"88","R_272LzGG1LoOL3K6","standard","2","22","LP","13.0392072382594","189.935","202.982",NA,"14.064",NA,"0","228",NA
"89","R_272LzGG1LoOL3K6","standard","2","23","LP","13.0392072382594","205.013","218.057","218.457","13.444","0.4","3","231",NA
"90","R_272LzGG1LoOL3K6","standard","2","24","LP","0.264713485566566","219.465","219.739","220.206","0.741","0.467","3","234",NA
"91","R_272LzGG1LoOL3K6","standard","2","25","LP","1.25738905644119","221.215","222.48","222.94","1.725","0.46","3","237",NA
"92","R_272LzGG1LoOL3K6","standard","2","26","LP","13.0392072382594","223.947","NaN","232.411","8.464","NaN","0","237",NA
"93","R_272LzGG1LoOL3K6","standard","2","27","LP","1.25738905644119","233.419","234.684","235.112","1.693","0.428","3","240",NA
"94","R_272LzGG1LoOL3K6","standard","2","28","LP","30","236.123","266.127","266.634","30.511","0.507","3","243",NA
"95","R_272LzGG1LoOL3K6","standard","2","29","LP","1.25738905644119","267.652","268.91","269.253","1.601","0.343","3","246",NA
"96","R_272LzGG1LoOL3K6","standard","2","30","LP","13.0392072382594","270.268","283.319","283.791","13.523","0.472","3","249",NA
"97","R_272LzGG1LoOL3K6","standard","2","31","LP","8.51632916846187","284.802","NaN","291.828","7.026","NaN","0","249",NA
"98","R_272LzGG1LoOL3K6","standard","2","32","LP","0.264713485566566","292.834","293.102","293.537","0.703","0.435","3","252",NA
"99","R_272LzGG1LoOL3K6","standard","2","33","LP","1.25738905644119","294.544","295.808","296.218","1.674","0.41","3","255",NA
"100","R_272LzGG1LoOL3K6","standard","2","34","LP","13.0392072382594","297.223","NaN","308.468","11.245","NaN","0","255",NA
"101","R_272LzGG1LoOL3K6","standard","2","35","LP","8.51632916846187","309.477","318.004","318.374","8.897","0.37","3","258",NA
"102","R_272LzGG1LoOL3K6","standard","2","36","LP","19.8235243429556","319.385","NaN","334.112","14.727","NaN","0","258",NA
"103","R_272LzGG1LoOL3K6","standard","2","37","LP","30","335.113","NaN","348.731","13.618","NaN","0","258",NA
"104","R_272LzGG1LoOL3K6","standard","2","38","LP","13.0392072382594","349.739","362.782","363.406","13.667","0.624","3","261",NA
"105","R_272LzGG1LoOL3K6","standard","2","39","LP","3.49090909090909","364.408","367.904","368.683","4.275","0.779","3","264",NA
"106","R_272LzGG1LoOL3K6","standard","2","40","LP","5.5010771219302","369.686","375.198","375.726","6.04","0.528","3","267",NA
"107","R_272LzGG1LoOL3K6","standard","2","41","LP","5.5010771219302","376.735","382.242","383.077","6.342","0.835","3","270",NA
"108","R_272LzGG1LoOL3K6","standard","2","42","LP","3.49090909090909","384.088","387.585","388.097","4.009","0.512","3","273",NA
"109","R_272LzGG1LoOL3K6","standard","2","43","LP","0.661783713916415","389.108","389.774","390.356","1.248","0.582","3","276",NA
"110","R_272LzGG1LoOL3K6","standard","2","44","LP","13.0392072382594","391.363","404.41","404.875","13.512","0.465","3","279",NA
"111","R_272LzGG1LoOL3K6","standard","2","45","LP","13.0392072382594","405.885","418.936","419.435","13.55","0.499","3","282",NA
"112","R_272LzGG1LoOL3K6","standard","2","46","LP","19.8235243429556","420.443","NaN","425.102","4.659","NaN","0","282",NA
"113","R_272LzGG1LoOL3K6","standard","2","47","LP","0.661783713916415","426.106","426.78","427.237","1.131","0.457","3","285",NA
"114","R_272LzGG1LoOL3K6","standard","2","48","LP","2.15079707022835","428.246","430.401","430.769","2.523","0.368","3","288",NA
"115","R_272LzGG1LoOL3K6","standard","2","49","LP","0.661783713916415","431.781","432.448","433.009","1.228","0.561","3","291",NA
"116","R_272LzGG1LoOL3K6","standard","2","50","LP","19.8235243429556","434.023","NaN","447.846","13.823","NaN","0","291",NA
"117","R_272LzGG1LoOL3K6","standard","2","51","LP","2.15079707022835","448.848","451.007","451.417","2.569","0.41","3","294",NA
"118","R_272LzGG1LoOL3K6","standard","2","52","LP","19.8235243429556","452.428","NaN","465.429","13.001","NaN","0","294",NA
"119","R_272LzGG1LoOL3K6","standard","2","53","LP","3.49090909090909","466.441","469.944","470.351","3.91","0.407","3","297",NA
"120","R_272LzGG1LoOL3K6","standard","2","54","LP","5.5010771219302","471.371","476.881","477.32","5.949","0.439","3","300",NA
"121","R_272LzGG1LoOL3K6","standard","2","55","LP","8.51632916846187","478.331","NaN","483.944","5.613","NaN","0","300",NA
"122","R_272LzGG1LoOL3K6","standard","2","56","LP","30","484.946","NaN","486.275","1.329","NaN","0","300",NA
"123","R_272LzGG1LoOL3K6","standard","2","57","LP","1.25738905644119","487.279","488.553","489.1","1.821","0.547","3","303",NA
"124","R_272LzGG1LoOL3K6","standard","2","58","LP","8.51632916846187","490.101","NaN","493.841","3.74","NaN","0","303",NA
"125","R_272LzGG1LoOL3K6","standard","2","59","LP","2.15079707022835","494.853","497.012","497.457","2.604","0.445","3","306",NA
"126","R_272LzGG1LoOL3K6","standard","2","60","LP","0.264713485566566","498.468","498.733","499.262","0.794","0.529","3","309",NA
"127","R_272LzGG1LoOL3K6","standard","2","61","LP","2.15079707022835","500.274","NaN","501.439","1.165","NaN","0","309",NA
"128","R_272LzGG1LoOL3K6","standard","2","62","LP","3.49090909090909","502.456","505.953","506.575","4.119","0.622","3","312",NA
"129","R_272LzGG1LoOL3K6","standard","2","63","LP","1.25738905644119","507.584","508.85","509.297","1.713","0.447","3","315",NA
"130","R_272LzGG1LoOL3K6","standard","2","64","LP","0.661783713916415","510.312","510.988","511.452","1.14","0.464","3","318",NA
"131","R_272LzGG1LoOL3K6","standard","2","65","LP","13.0392072382594","512.454","NaN","517.838","5.384","NaN","0","318",NA
"132","R_272LzGG1LoOL3K6","standard","2","66","LP","2.15079707022835","518.846","521.005","521.425","2.579","0.42","3","321",NA
"133","R_272LzGG1LoOL3K6","standard","2","67","LP","3.49090909090909","522.436","525.94","526.508","4.072","0.568","3","324",NA
"134","R_272LzGG1LoOL3K6","standard","2","68","LP","5.5010771219302","527.52","NaN","532.973","5.453","NaN","0","324",NA
"135","R_272LzGG1LoOL3K6","standard","2","69","LP","19.8235243429556","533.992","NaN","540.859","6.867","NaN","0","324",NA
"136","R_272LzGG1LoOL3K6","standard","2","70","LP","0.661783713916415","541.868","542.534","543.035","1.167","0.501","3","327",NA
"137","R_272LzGG1LoOL3K6","standard","2","71","LP","5.5010771219302","544.039","549.543","550.071","6.032","0.528","3","330",NA
"138","R_272LzGG1LoOL3K6","standard","2","72","LP","8.51632916846187","551.094","NaN","556.159","5.065","NaN","0","330",NA
"139","R_272LzGG1LoOL3K6","standard","2","73","LP","0.264713485566566","557.169","557.442","557.925","0.756","0.483","3","333",NA
"140","R_272LzGG1LoOL3K6","standard","2","74","LP","2.15079707022835","558.934","561.09","561.563","2.629","0.473","3","336",NA
"141","R_272LzGG1LoOL3K6","standard","2","75","LP","0.661783713916415","562.57","563.236","563.806","1.236","0.57","3","339",NA
"142","R_272LzGG1LoOL3K6","standard","2","76","LP","0.661783713916415","564.813","565.485","565.966","1.153","0.481","3","342",NA
"143","R_272LzGG1LoOL3K6","standard","2","77","LP","1.25738905644119","566.977","568.24","568.82","1.843","0.58","3","345",NA
"144","R_272LzGG1LoOL3K6","standard","2","78","LP","8.51632916846187","569.824","NaN","575.594","5.77","NaN","0","345",NA
"145","R_272LzGG1LoOL3K6","standard","2","79","LP","1.25738905644119","576.6","577.871","578.276","1.676","0.405","3","348",NA
"146","R_272LzGG1LoOL3K6","standard","2","80","LP","0.661783713916415","579.28","579.963","580.408","1.128","0.445","3","351",NA
"147","R_272LzGG1LoOL3K6","standard","2","81","LP","1.25738905644119","581.414","582.685","583.246","1.832","0.561","3","354",NA
"148","R_272LzGG1LoOL3K6","standard","2","82","LP","8.51632916846187","584.249","NaN","589.063","4.814","NaN","0","354",NA
"149","R_272LzGG1LoOL3K6","standard","2","83","LP","2.15079707022835","590.071","592.233","592.641","2.57","0.408","3","357",NA
"150","R_272LzGG1LoOL3K6","standard","2","84","LP","0.264713485566566","593.649","593.925","594.492","0.843","0.567","3","360",NA
