"","subject_id","condition","n_block","n_trialIdx","f_timing_condition","n_scheduled_delay","n_trial_start_time","n_rewarded_time_fin","n_sell_time_fin","n_time_waited_fin","RT_fin","n_trial_earnings_fin","n_total_earnings_fin","keypress_times"
"1","R_28ZGm4MlskSk3tH","standard","1","1","HP","20","0","20.002","20.432","20.432","0.43","3","3",""
"2","R_28ZGm4MlskSk3tH","standard","1","2","HP","16","21.434","37.434","37.809","16.375","0.375","3","6",""
"3","R_28ZGm4MlskSk3tH","standard","1","3","HP","20","38.809","58.81","59.259","20.45","0.449","3","9",""
"4","R_28ZGm4MlskSk3tH","standard","1","4","HP","12","60.26","72.262","NA","13.003","NA","0","9",""
"5","R_28ZGm4MlskSk3tH","standard","1","5","HP","8","74.264","82.265","82.966","8.702","0.701","3","12",""
"6","R_28ZGm4MlskSk3tH","standard","1","6","HP","2","83.968","85.969","NA","3.002","NA","0","12",""
"7","R_28ZGm4MlskSk3tH","standard","1","7","HP","4","87.972","91.973","NA","5.002","NA","0","12",""
"8","R_28ZGm4MlskSk3tH","standard","1","8","HP","10","93.975","103.976","104.584","10.609","0.608","3","15",""
"9","R_28ZGm4MlskSk3tH","standard","1","9","HP","6","105.585","111.586","112.169","6.584","0.583","3","18",""
"10","R_28ZGm4MlskSk3tH","standard","1","10","HP","16","113.17","129.171","129.643","16.473","0.472","3","21",""
"11","R_28ZGm4MlskSk3tH","standard","1","11","HP","20","130.644","150.646","151.177","20.533","0.531","3","24",""
"12","R_28ZGm4MlskSk3tH","standard","1","12","HP","14","152.178","166.179","166.713","14.535","0.534","3","27",""
"13","R_28ZGm4MlskSk3tH","standard","1","13","HP","18","167.714","185.716","186.196","18.482","0.48","3","30",""
"14","R_28ZGm4MlskSk3tH","standard","1","14","HP","18","187.198","205.198","205.571","18.373","0.373","3","33",""
"15","R_28ZGm4MlskSk3tH","standard","1","15","HP","20","206.572","226.573","226.868","20.296","0.295","3","36",""
"16","R_28ZGm4MlskSk3tH","standard","1","16","HP","2","227.868","229.87","NA","3.004","NA","0","36",""
"17","R_28ZGm4MlskSk3tH","standard","1","17","HP","10","231.873","241.874","242.46","10.587","0.586","3","39",""
"18","R_28ZGm4MlskSk3tH","standard","1","18","HP","4","243.462","247.463","NA","5.003","NA","0","39",""
"19","R_28ZGm4MlskSk3tH","standard","1","19","HP","14","249.465","263.467","263.905","14.44","0.438","3","42",""
"20","R_28ZGm4MlskSk3tH","standard","1","20","HP","18","264.907","282.907","283.26","18.353","0.353","3","45",""
"21","R_28ZGm4MlskSk3tH","standard","1","21","HP","8","284.262","292.264","292.664","8.402","0.4","3","48",""
"22","R_28ZGm4MlskSk3tH","standard","1","22","HP","18","293.666","311.668","312.087","18.421","0.419","3","51",""
"23","R_28ZGm4MlskSk3tH","standard","1","23","HP","12","313.089","325.089","325.532","12.443","0.443","3","54",""
"24","R_28ZGm4MlskSk3tH","standard","1","24","HP","4","326.534","330.535","NA","5.002","NA","0","54",""
"25","R_28ZGm4MlskSk3tH","standard","1","25","HP","8","332.536","340.537","341.128","8.592","0.591","3","57",""
"26","R_28ZGm4MlskSk3tH","standard","1","26","HP","8","342.13","350.131","350.693","8.563","0.562","3","60",""
"27","R_28ZGm4MlskSk3tH","standard","1","27","HP","6","351.694","357.696","358.058","6.364","0.362","3","63",""
"28","R_28ZGm4MlskSk3tH","standard","1","28","HP","4","359.059","363.061","NA","5.004","NA","0","63",""
"29","R_28ZGm4MlskSk3tH","standard","1","29","HP","20","365.064","385.066","385.515","20.451","0.449","3","66",""
"30","R_28ZGm4MlskSk3tH","standard","1","30","HP","6","386.517","392.518","NA","7.003","NA","0","66",""
"31","R_28ZGm4MlskSk3tH","standard","1","31","HP","8","394.521","402.522","402.937","8.416","0.415","3","69",""
"32","R_28ZGm4MlskSk3tH","standard","1","32","HP","20","403.939","423.94","424.297","20.358","0.357","3","72",""
"33","R_28ZGm4MlskSk3tH","standard","1","33","HP","6","425.299","431.3","NA","7.003","NA","0","72",""
"34","R_28ZGm4MlskSk3tH","standard","1","34","HP","2","433.303","435.305","NA","3.003","NA","0","72",""
"35","R_28ZGm4MlskSk3tH","standard","1","35","HP","18","437.308","455.309","455.685","18.377","0.376","3","75",""
"36","R_28ZGm4MlskSk3tH","standard","1","36","HP","14","456.686","470.687","471.028","14.342","0.341","3","78",""
"37","R_28ZGm4MlskSk3tH","standard","1","37","HP","2","472.029","474.03","NA","3.003","NA","0","78",""
"38","R_28ZGm4MlskSk3tH","standard","1","38","HP","16","476.034","492.035","492.485","16.451","0.45","3","81",""
"39","R_28ZGm4MlskSk3tH","standard","1","39","HP","16","493.487","509.488","510.154","16.667","0.666","3","84",""
"40","R_28ZGm4MlskSk3tH","standard","1","40","HP","12","511.155","523.157","NA","13.003","NA","0","84",""
"41","R_28ZGm4MlskSk3tH","standard","1","41","HP","10","525.159","535.161","535.652","10.493","0.491","3","87",""
"42","R_28ZGm4MlskSk3tH","standard","1","42","HP","20","536.652","556.654","557.198","20.546","0.544","3","90",""
"43","R_28ZGm4MlskSk3tH","standard","1","43","HP","10","558.2","568.201","568.576","10.376","0.375","3","93",""
"44","R_28ZGm4MlskSk3tH","standard","1","44","HP","18","569.578","587.579","588.314","18.736","0.735","3","96",""
"45","R_28ZGm4MlskSk3tH","standard","1","45","HP","6","589.314","595.316","595.817","6.503","0.501","3","99",""
"46","R_28ZGm4MlskSk3tH","standard","1","46","HP","8","596.818","604.82","605.303","8.485","0.483","3","102",""
"47","R_28ZGm4MlskSk3tH","standard","1","47","HP","8","606.304","614.306","614.824","8.52","0.518","3","105",""
"48","R_28ZGm4MlskSk3tH","standard","1","48","HP","8","615.826","623.826","624.188","8.362","0.362","3","108",""
"49","R_28ZGm4MlskSk3tH","standard","1","49","HP","14","625.189","639.194","639.574","14.385","0.38","3","108","8278"
"50","R_28ZGm4MlskSk3tH","standard","1","50","HP","16","640.575","656.575","656.959","16.384","0.384","3","111",""
"51","R_28ZGm4MlskSk3tH","standard","1","51","HP","16","657.96","673.96","674.289","16.329","0.329","3","114",""
"52","R_28ZGm4MlskSk3tH","standard","1","52","HP","6","675.29","681.291","NA","7.003","NA","0","114",""
"53","R_28ZGm4MlskSk3tH","standard","1","53","HP","6","683.294","689.295","689.672","6.378","0.377","3","117",""
"54","R_28ZGm4MlskSk3tH","standard","1","54","HP","14","690.673","704.674","705.05","14.377","0.376","3","120",""
"55","R_28ZGm4MlskSk3tH","standard","1","55","HP","8","706.051","714.052","714.657","8.606","0.605","3","123",""
"56","R_28ZGm4MlskSk3tH","standard","1","56","HP","12","715.658","727.66","728.147","12.489","0.487","3","126",""
"57","R_28ZGm4MlskSk3tH","standard","1","57","HP","12","729.148","741.149","741.564","12.416","0.415","3","129",""
"58","R_28ZGm4MlskSk3tH","standard","1","58","HP","18","742.565","760.565","760.932","18.367","0.367","3","132",""
"59","R_28ZGm4MlskSk3tH","standard","1","59","HP","16","761.933","777.934","778.253","16.32","0.319","3","135",""
"60","R_28ZGm4MlskSk3tH","standard","1","60","HP","10","779.255","789.257","789.688","10.433","0.431","3","138",""
"61","R_28ZGm4MlskSk3tH","standard","1","61","HP","14","790.69","804.692","805.105","14.415","0.413","3","141",""
"62","R_28ZGm4MlskSk3tH","standard","1","62","HP","18","806.107","824.108","824.58","18.473","0.472","3","144",""
"63","R_28ZGm4MlskSk3tH","standard","1","63","HP","12","825.582","837.584","837.919","12.337","0.335","3","147",""
"64","R_28ZGm4MlskSk3tH","standard","1","64","HP","20","838.92","858.922","859.328","20.408","0.406","3","150",""
"65","R_28ZGm4MlskSk3tH","standard","1","65","HP","16","860.328","876.33","876.705","16.377","0.375","3","153",""
"66","R_28ZGm4MlskSk3tH","standard","1","66","HP","12","877.707","889.708","890.02","12.313","0.312","3","156",""
"67","R_28ZGm4MlskSk3tH","standard","1","67","HP","2","891.021","893.022","NA","3.002","NA","0","156",""
"68","R_28ZGm4MlskSk3tH","standard","2","1","LP","8.51632916846187","0","8.518","8.94","8.94","0.422","3","159",NA
"69","R_28ZGm4MlskSk3tH","standard","2","2","LP","0.661783713916415","9.941","10.603",NA,"1.664",NA,"0","159",NA
"70","R_28ZGm4MlskSk3tH","standard","2","3","LP","13.0392072382594","12.605","NaN","18.189","5.584","NaN","0","159",NA
"71","R_28ZGm4MlskSk3tH","standard","2","4","LP","0.661783713916415","19.19","19.852",NA,"1.664",NA,"0","159",NA
"72","R_28ZGm4MlskSk3tH","standard","2","5","LP","13.0392072382594","21.854","34.895","35.359","13.505","0.464","3","162",NA
"73","R_28ZGm4MlskSk3tH","standard","2","6","LP","13.0392072382594","36.359","49.4","49.762","13.403","0.362","3","165",NA
"74","R_28ZGm4MlskSk3tH","standard","2","7","LP","1.25738905644119","50.763","52.022","52.774","2.011","0.752","3","168",NA
"75","R_28ZGm4MlskSk3tH","standard","2","8","LP","13.0392072382594","53.776","66.817","67.468","13.692","0.651","3","171",NA
"76","R_28ZGm4MlskSk3tH","standard","2","9","LP","5.5010771219302","68.469","73.973","74.451","5.982","0.478","3","174",NA
"77","R_28ZGm4MlskSk3tH","standard","2","10","LP","30","75.453","105.454","105.787","30.334","0.333","3","177",NA
"78","R_28ZGm4MlskSk3tH","standard","2","11","LP","0.264713485566566","106.788","107.053",NA,"1.267",NA,"0","177",NA
"79","R_28ZGm4MlskSk3tH","standard","2","12","LP","13.0392072382594","109.056","122.098","122.549","13.493","0.451","3","180",NA
"80","R_28ZGm4MlskSk3tH","standard","2","13","LP","5.5010771219302","123.551","129.053","129.654","6.103","0.601","3","183",NA
"81","R_28ZGm4MlskSk3tH","standard","2","14","LP","8.51632916846187","130.656","139.173",NA,"9.519",NA,"0","183",NA
"82","R_28ZGm4MlskSk3tH","standard","2","15","LP","0.264713485566566","141.176","141.442",NA,"1.267",NA,"0","183",NA
"83","R_28ZGm4MlskSk3tH","standard","2","16","LP","13.0392072382594","143.444","156.485",NA,"14.042",NA,"0","183",NA
"84","R_28ZGm4MlskSk3tH","standard","2","17","LP","0.661783713916415","158.487","159.15",NA,"1.665",NA,"0","183",NA
"85","R_28ZGm4MlskSk3tH","standard","2","18","LP","3.49090909090909","161.153","164.644","165.483","4.33","0.839","3","186",NA
"86","R_28ZGm4MlskSk3tH","standard","2","19","LP","2.15079707022835","166.484","168.635","169.61","3.126","0.975","3","189",NA
"87","R_28ZGm4MlskSk3tH","standard","2","20","LP","13.0392072382594","170.611","183.651","183.995","13.384","0.344","3","192",NA
"88","R_28ZGm4MlskSk3tH","standard","2","21","LP","30","184.997","214.998","215.351","30.354","0.353","3","195",NA
"89","R_28ZGm4MlskSk3tH","standard","2","22","LP","30","216.352","246.354","246.799","30.447","0.445","3","198",NA
"90","R_28ZGm4MlskSk3tH","standard","2","23","LP","19.8235243429556","247.8","267.624","267.965","20.165","0.341","3","201",NA
"91","R_28ZGm4MlskSk3tH","standard","2","24","LP","2.15079707022835","268.967","271.118",NA,"3.152",NA,"0","201",NA
"92","R_28ZGm4MlskSk3tH","standard","2","25","LP","2.15079707022835","273.12","275.271","275.858","2.738","0.587","3","204",NA
"93","R_28ZGm4MlskSk3tH","standard","2","26","LP","19.8235243429556","276.859","296.683","297.141","20.282","0.458","3","207",NA
"94","R_28ZGm4MlskSk3tH","standard","2","27","LP","13.0392072382594","298.142","311.182","311.526","13.384","0.344","3","210",NA
"95","R_28ZGm4MlskSk3tH","standard","2","28","LP","3.49090909090909","312.527","316.018","316.485","3.958","0.467","3","213",NA
"96","R_28ZGm4MlskSk3tH","standard","2","29","LP","2.15079707022835","317.485","319.637","320.022","2.537","0.385","3","216",NA
"97","R_28ZGm4MlskSk3tH","standard","2","30","LP","3.49090909090909","321.023","324.514","324.954","3.931","0.44","3","219",NA
"98","R_28ZGm4MlskSk3tH","standard","2","31","LP","5.5010771219302","325.955","331.457","331.848","5.893","0.391","3","222",NA
"99","R_28ZGm4MlskSk3tH","standard","2","32","LP","2.15079707022835","332.849","335","335.404","2.555","0.404","3","225",NA
"100","R_28ZGm4MlskSk3tH","standard","2","33","LP","1.25738905644119","336.405","337.663","338.065","1.66","0.402","3","228",NA
"101","R_28ZGm4MlskSk3tH","standard","2","34","LP","0.264713485566566","339.067","339.333","339.951","0.884","0.618","3","231",NA
"102","R_28ZGm4MlskSk3tH","standard","2","35","LP","3.49090909090909","340.952","344.444","345.031","4.079","0.587","3","234",NA
"103","R_28ZGm4MlskSk3tH","standard","2","36","LP","30","346.033","NaN","365.896","19.863","NaN","0","234",NA
"104","R_28ZGm4MlskSk3tH","standard","2","37","LP","8.51632916846187","366.898","375.415","376.25","9.352","0.835","3","237",NA
"105","R_28ZGm4MlskSk3tH","standard","2","38","LP","30","377.252","NaN","396.654","19.402","NaN","0","237",NA
"106","R_28ZGm4MlskSk3tH","standard","2","39","LP","0.264713485566566","397.656","397.921","398.389","0.733","0.468","3","240",NA
"107","R_28ZGm4MlskSk3tH","standard","2","40","LP","13.0392072382594","399.391","NaN","407.123","7.732","NaN","0","240",NA
"108","R_28ZGm4MlskSk3tH","standard","2","41","LP","13.0392072382594","408.125","NaN","417.798","9.673","NaN","0","240",NA
"109","R_28ZGm4MlskSk3tH","standard","2","42","LP","19.8235243429556","418.799","438.623","439.072","20.273","0.449","3","243",NA
"110","R_28ZGm4MlskSk3tH","standard","2","43","LP","0.661783713916415","440.074","440.736","441.143","1.069","0.407","3","246",NA
"111","R_28ZGm4MlskSk3tH","standard","2","44","LP","3.49090909090909","442.145","445.636","446.036","3.891","0.4","3","249",NA
"112","R_28ZGm4MlskSk3tH","standard","2","45","LP","1.25738905644119","447.038","448.296","448.704","1.666","0.408","3","252",NA
"113","R_28ZGm4MlskSk3tH","standard","2","46","LP","0.661783713916415","449.705","450.368","450.799","1.094","0.431","3","255",NA
"114","R_28ZGm4MlskSk3tH","standard","2","47","LP","30","451.801","NaN","458.857","7.056","NaN","0","255",NA
"115","R_28ZGm4MlskSk3tH","standard","2","48","LP","8.51632916846187","459.858","NaN","465.886","6.028","NaN","0","255",NA
"116","R_28ZGm4MlskSk3tH","standard","2","49","LP","5.5010771219302","466.888","472.39","472.811","5.923","0.421","3","258",NA
"117","R_28ZGm4MlskSk3tH","standard","2","50","LP","13.0392072382594","473.813","486.854","487.356","13.543","0.502","3","261",NA
"118","R_28ZGm4MlskSk3tH","standard","2","51","LP","1.25738905644119","488.358","489.617","490.231","1.873","0.614","3","264",NA
"119","R_28ZGm4MlskSk3tH","standard","2","52","LP","0.264713485566566","491.233","491.498","491.832","0.599","0.334","3","267",NA
"120","R_28ZGm4MlskSk3tH","standard","2","53","LP","13.0392072382594","492.833","505.874","506.34","13.507","0.466","3","270",NA
"121","R_28ZGm4MlskSk3tH","standard","2","54","LP","0.264713485566566","507.341","507.607","508.013","0.672","0.406","3","273",NA
"122","R_28ZGm4MlskSk3tH","standard","2","55","LP","0.264713485566566","509.014","509.279","509.596","0.582","0.317","3","276",NA
"123","R_28ZGm4MlskSk3tH","standard","2","56","LP","19.8235243429556","510.597","NaN","518.826","8.229","NaN","0","276",NA
"124","R_28ZGm4MlskSk3tH","standard","2","57","LP","30","519.828","NaN","524.907","5.079","NaN","0","276",NA
"125","R_28ZGm4MlskSk3tH","standard","2","58","LP","5.5010771219302","525.908","531.411","531.777","5.869","0.366","3","279",NA
"126","R_28ZGm4MlskSk3tH","standard","2","59","LP","0.264713485566566","532.778","533.043","533.51","0.732","0.467","3","282",NA
"127","R_28ZGm4MlskSk3tH","standard","2","60","LP","13.0392072382594","534.511","547.551","547.942","13.431","0.391","3","285",NA
"128","R_28ZGm4MlskSk3tH","standard","2","61","LP","0.264713485566566","548.942","549.208","549.544","0.602","0.336","3","288",NA
"129","R_28ZGm4MlskSk3tH","standard","2","62","LP","1.25738905644119","550.545","551.803","552.161","1.616","0.358","3","291",NA
"130","R_28ZGm4MlskSk3tH","standard","2","63","LP","8.51632916846187","553.162","561.68","562.108","8.946","0.428","3","294",NA
"131","R_28ZGm4MlskSk3tH","standard","2","64","LP","0.661783713916415","563.109","563.772","564.331","1.222","0.559","3","297",NA
"132","R_28ZGm4MlskSk3tH","standard","2","65","LP","2.15079707022835","565.332","567.483","568.242","2.91","0.759","3","300",NA
"133","R_28ZGm4MlskSk3tH","standard","2","66","LP","8.51632916846187","569.243","577.761","578.107","8.864","0.346","3","303",NA
"134","R_28ZGm4MlskSk3tH","standard","2","67","LP","3.49090909090909","579.108","582.599","583.223","4.115","0.624","3","306",NA
