"","subject_id","condition","n_block","n_trialIdx","f_timing_condition","n_scheduled_delay","n_trial_start_time","n_rewarded_time_fin","n_sell_time_fin","n_time_waited_fin","RT_fin","n_trial_earnings_fin","n_total_earnings_fin","keypress_times"
"1","R_29h1jP5aJ6jvcDr","standard","1","1","LP","0.264713485566566","0.003","0.273","NA","1.284","NA","0","0",""
"2","R_29h1jP5aJ6jvcDr","standard","1","2","LP","8.51632916846187","2.289","10.819","11.62","9.331","0.801","3","3","740"
"3","R_29h1jP5aJ6jvcDr","standard","1","3","LP","30","12.627","42.627","43.403","30.776","0.776","3","6",""
"4","R_29h1jP5aJ6jvcDr","standard","1","4","LP","1.25738905644119","44.418","45.689","NA","2.294","NA","0","6",""
"5","R_29h1jP5aJ6jvcDr","standard","1","5","LP","3.49090909090909","47.715","51.226","52.142","4.427","0.916","3","9",""
"6","R_29h1jP5aJ6jvcDr","standard","1","6","LP","3.49090909090909","53.143","56.641","57.385","4.242","0.744","3","12",""
"7","R_29h1jP5aJ6jvcDr","standard","1","7","LP","30","58.398","88.4","89.088","30.69","0.688","3","15",""
"8","R_29h1jP5aJ6jvcDr","standard","1","8","LP","1.25738905644119","90.111","91.382","92.205","2.094","0.823","3","18",""
"9","R_29h1jP5aJ6jvcDr","standard","1","9","LP","0.661783713916415","93.239","93.904","94.677","1.438","0.773","3","21",""
"10","R_29h1jP5aJ6jvcDr","standard","1","10","LP","0.661783713916415","95.679","96.35","97.121","1.442","0.771","3","24",""
"11","R_29h1jP5aJ6jvcDr","standard","1","11","LP","0.661783713916415","98.125","98.796","99.624","1.499","0.828","3","27",""
"12","R_29h1jP5aJ6jvcDr","standard","1","12","LP","3.49090909090909","100.625","104.126","104.944","4.319","0.818","3","30",""
"13","R_29h1jP5aJ6jvcDr","standard","1","13","LP","30","105.951","135.952","136.655","30.704","0.703","3","33",""
"14","R_29h1jP5aJ6jvcDr","standard","1","14","LP","0.264713485566566","137.66","137.933","138.868","1.208","0.935","3","36",""
"15","R_29h1jP5aJ6jvcDr","standard","1","15","LP","1.25738905644119","139.873","141.135","141.842","1.969","0.707","3","39",""
"16","R_29h1jP5aJ6jvcDr","standard","1","16","LP","2.15079707022835","142.844","145.004","145.942","3.098","0.938","3","42",""
"17","R_29h1jP5aJ6jvcDr","standard","1","17","LP","8.51632916846187","146.951","155.468","156.271","9.32","0.803","3","45",""
"18","R_29h1jP5aJ6jvcDr","standard","1","18","LP","13.0392072382594","157.287","170.335","171.134","13.847","0.799","3","48",""
"19","R_29h1jP5aJ6jvcDr","standard","1","19","LP","8.51632916846187","172.149","180.675","181.425","9.276","0.75","3","51",""
"20","R_29h1jP5aJ6jvcDr","standard","1","20","LP","5.5010771219302","182.43","187.945","188.768","6.338","0.823","3","54",""
"21","R_29h1jP5aJ6jvcDr","standard","1","21","LP","13.0392072382594","189.776","202.822","203.695","13.919","0.873","3","57",""
"22","R_29h1jP5aJ6jvcDr","standard","1","22","LP","0.661783713916415","204.708","205.381","206.128","1.42","0.747","3","60",""
"23","R_29h1jP5aJ6jvcDr","standard","1","23","LP","3.49090909090909","207.134","210.624","211.425","4.291","0.801","3","63",""
"24","R_29h1jP5aJ6jvcDr","standard","1","24","LP","19.8235243429556","212.437","232.262","233.03","20.593","0.768","3","66",""
"25","R_29h1jP5aJ6jvcDr","standard","1","25","LP","5.5010771219302","234.038","239.542","240.282","6.244","0.74","3","69",""
"26","R_29h1jP5aJ6jvcDr","standard","1","26","LP","5.5010771219302","241.286","246.806","247.58","6.294","0.774","3","72",""
"27","R_29h1jP5aJ6jvcDr","standard","1","27","LP","13.0392072382594","248.584","261.626","262.447","13.863","0.821","3","75",""
"28","R_29h1jP5aJ6jvcDr","standard","1","28","LP","19.8235243429556","263.448","283.299","284.071","20.623","0.772","3","78",""
"29","R_29h1jP5aJ6jvcDr","standard","1","29","LP","3.49090909090909","285.081","288.577","289.39","4.309","0.813","3","81",""
"30","R_29h1jP5aJ6jvcDr","standard","1","30","LP","13.0392072382594","290.407","303.455","304.303","13.896","0.848","3","84",""
"31","R_29h1jP5aJ6jvcDr","standard","1","31","LP","19.8235243429556","305.307","325.135","325.908","20.601","0.773","3","87",""
"32","R_29h1jP5aJ6jvcDr","standard","1","32","LP","1.25738905644119","326.911","328.179","328.976","2.065","0.797","3","90",""
"33","R_29h1jP5aJ6jvcDr","standard","1","33","LP","5.5010771219302","329.994","335.515","336.273","6.279","0.758","3","93",""
"34","R_29h1jP5aJ6jvcDr","standard","1","34","LP","0.661783713916415","337.283","337.95","338.659","1.376","0.709","3","96",""
"35","R_29h1jP5aJ6jvcDr","standard","1","35","LP","13.0392072382594","339.665","352.704","353.631","13.966","0.927","3","99",""
"36","R_29h1jP5aJ6jvcDr","standard","1","36","LP","0.264713485566566","354.638","354.906","NA","1.274","NA","0","99",""
"37","R_29h1jP5aJ6jvcDr","standard","1","37","LP","19.8235243429556","356.918","376.755","377.532","20.614","0.777","3","102",""
"38","R_29h1jP5aJ6jvcDr","standard","1","38","LP","3.49090909090909","378.534","382.024","382.822","4.288","0.798","3","105",""
"39","R_29h1jP5aJ6jvcDr","standard","1","39","LP","5.5010771219302","383.826","389.335","390.059","6.233","0.724","3","108",""
"40","R_29h1jP5aJ6jvcDr","standard","1","40","LP","0.661783713916415","391.061","391.726","NA","1.675","NA","0","108",""
"41","R_29h1jP5aJ6jvcDr","standard","1","41","LP","0.264713485566566","393.744","394.01","394.834","1.09","0.824","3","111",""
"42","R_29h1jP5aJ6jvcDr","standard","1","42","LP","0.661783713916415","395.837","396.509","397.25","1.413","0.741","3","114",""
"43","R_29h1jP5aJ6jvcDr","standard","1","43","LP","13.0392072382594","398.255","411.294","412.168","13.913","0.874","3","117",""
"44","R_29h1jP5aJ6jvcDr","standard","1","44","LP","0.661783713916415","413.177","413.844","414.52","1.343","0.676","3","120",""
"45","R_29h1jP5aJ6jvcDr","standard","1","45","LP","8.51632916846187","415.526","424.046","424.854","9.328","0.808","3","123",""
"46","R_29h1jP5aJ6jvcDr","standard","1","46","LP","19.8235243429556","425.855","445.686","446.56","20.705","0.874","3","126",""
"47","R_29h1jP5aJ6jvcDr","standard","1","47","LP","1.25738905644119","447.574","448.846","449.524","1.95","0.678","3","129",""
"48","R_29h1jP5aJ6jvcDr","standard","1","48","LP","13.0392072382594","450.526","463.567","464.273","13.747","0.706","3","132",""
"49","R_29h1jP5aJ6jvcDr","standard","1","49","LP","30","465.288","495.295","496.071","30.783","0.776","3","135",""
"50","R_29h1jP5aJ6jvcDr","standard","1","50","LP","1.25738905644119","497.079","498.35","499.058","1.979","0.708","3","138",""
"51","R_29h1jP5aJ6jvcDr","standard","1","51","LP","3.49090909090909","500.069","503.57","504.298","4.229","0.728","3","141",""
"52","R_29h1jP5aJ6jvcDr","standard","1","52","LP","19.8235243429556","505.313","525.149","525.907","20.594","0.758","3","144",""
"53","R_29h1jP5aJ6jvcDr","standard","1","53","LP","5.5010771219302","526.918","532.423","533.196","6.278","0.773","3","147",""
"54","R_29h1jP5aJ6jvcDr","standard","1","54","LP","30","534.224","564.226","565.02","30.796","0.794","3","150",""
"55","R_29h1jP5aJ6jvcDr","standard","1","55","LP","19.8235243429556","566.022","585.847","586.714","20.692","0.867","3","153",""
"56","R_29h1jP5aJ6jvcDr","standard","1","56","LP","30","587.718","617.719","618.422","30.704","0.703","3","156",""
"57","R_29h1jP5aJ6jvcDr","standard","1","57","LP","19.8235243429556","619.428","639.255","639.994","20.566","0.739","3","159",""
"58","R_29h1jP5aJ6jvcDr","standard","1","58","LP","13.0392072382594","641.003","654.046","654.823","13.82","0.777","3","162",""
"59","R_29h1jP5aJ6jvcDr","standard","1","59","LP","19.8235243429556","655.83","675.658","676.472","20.642","0.814","3","165",""
"60","R_29h1jP5aJ6jvcDr","standard","1","60","LP","2.15079707022835","677.487","679.657","680.398","2.911","0.741","3","168",""
"61","R_29h1jP5aJ6jvcDr","standard","1","61","LP","2.15079707022835","681.42","683.585","684.43","3.01","0.845","3","171",""
"62","R_29h1jP5aJ6jvcDr","standard","1","62","LP","1.25738905644119","685.46","686.725","687.477","2.017","0.752","3","174",""
"63","R_29h1jP5aJ6jvcDr","standard","1","63","LP","19.8235243429556","688.48","708.309","709.278","20.798","0.969","3","177",""
"64","R_29h1jP5aJ6jvcDr","standard","1","64","LP","0.264713485566566","710.279","710.557","711.338","1.059","0.781","3","180",""
"65","R_29h1jP5aJ6jvcDr","standard","1","65","LP","8.51632916846187","712.342","720.864","721.712","9.37","0.848","3","183",""
"66","R_29h1jP5aJ6jvcDr","standard","1","66","LP","0.264713485566566","722.719","722.994","723.753","1.034","0.759","3","186",""
"67","R_29h1jP5aJ6jvcDr","standard","1","67","LP","8.51632916846187","724.757","733.307","734.121","9.364","0.814","3","189",""
"68","R_29h1jP5aJ6jvcDr","standard","1","68","LP","0.264713485566566","735.122","735.392","736.221","1.099","0.829","3","192",""
"69","R_29h1jP5aJ6jvcDr","standard","1","69","LP","19.8235243429556","737.235","757.068","757.873","20.638","0.805","3","195",""
"70","R_29h1jP5aJ6jvcDr","standard","1","70","LP","0.264713485566566","758.887","759.158","759.912","1.025","0.754","3","198",""
"71","R_29h1jP5aJ6jvcDr","standard","1","71","LP","30","760.918","790.918","791.593","30.675","0.675","3","201",""
"72","R_29h1jP5aJ6jvcDr","standard","1","72","LP","2.15079707022835","792.602","794.767","795.566","2.964","0.799","3","204",""
"73","R_29h1jP5aJ6jvcDr","standard","1","73","LP","1.25738905644119","796.566","797.829","798.647","2.081","0.818","3","207",""
"74","R_29h1jP5aJ6jvcDr","standard","1","74","LP","5.5010771219302","799.66","805.175","806.042","6.382","0.867","3","210",""
"75","R_29h1jP5aJ6jvcDr","standard","1","75","LP","13.0392072382594","807.046","820.108","820.955","13.909","0.847","3","213",""
"76","R_29h1jP5aJ6jvcDr","standard","1","76","LP","1.25738905644119","821.958","823.238","824.094","2.136","0.856","3","216",""
"77","R_29h1jP5aJ6jvcDr","standard","1","77","LP","0.264713485566566","825.112","825.381","826.161","1.049","0.78","3","219",""
"78","R_29h1jP5aJ6jvcDr","standard","1","78","LP","30","827.187","857.203","857.935","30.748","0.732","3","222",""
"79","R_29h1jP5aJ6jvcDr","standard","1","79","LP","2.15079707022835","858.936","861.095","861.865","2.929","0.77","3","225",""
"80","R_29h1jP5aJ6jvcDr","standard","1","80","LP","0.264713485566566","862.875","863.141","863.892","1.017","0.751","3","228",""
"81","R_29h1jP5aJ6jvcDr","standard","1","81","LP","13.0392072382594","864.895","877.936","878.742","13.847","0.806","3","231",""
"82","R_29h1jP5aJ6jvcDr","standard","2","1","LP","8.51632916846187","0.001","NaN","0.935","0.934","NaN","0","231",NA
"83","R_29h1jP5aJ6jvcDr","standard","2","2","LP","8.51632916846187","1.941","NaN","2.897","0.956","NaN","0","231",NA
"84","R_29h1jP5aJ6jvcDr","standard","2","3","LP","0.264713485566566","3.905","4.178","4.72","0.815","0.542","3","234",NA
"85","R_29h1jP5aJ6jvcDr","standard","2","4","LP","3.49090909090909","5.722","NaN","6.967","1.245","NaN","0","234",NA
"86","R_29h1jP5aJ6jvcDr","standard","2","5","LP","2.15079707022835","7.987","NaN","8.775","0.788","NaN","0","234",NA
"87","R_29h1jP5aJ6jvcDr","standard","2","6","LP","1.25738905644119","9.784","11.045","11.831","2.047","0.786","3","237",NA
"88","R_29h1jP5aJ6jvcDr","standard","2","7","LP","19.8235243429556","12.838","NaN","14.486","1.648","NaN","0","237",NA
"89","R_29h1jP5aJ6jvcDr","standard","2","8","LP","8.51632916846187","15.497","NaN","20.353","4.856","NaN","0","237",NA
"90","R_29h1jP5aJ6jvcDr","standard","2","9","LP","1.25738905644119","21.358","22.616",NA,"2.263",NA,"0","237",NA
"91","R_29h1jP5aJ6jvcDr","standard","2","10","LP","1.25738905644119","24.63","25.894","26.636","2.006","0.742","3","240",NA
"92","R_29h1jP5aJ6jvcDr","standard","2","11","LP","1.25738905644119","27.638","28.902","29.745","2.107","0.843","3","243",NA
"93","R_29h1jP5aJ6jvcDr","standard","2","12","LP","13.0392072382594","30.756","NaN","41.393","10.637","NaN","0","243",NA
"94","R_29h1jP5aJ6jvcDr","standard","2","13","LP","13.0392072382594","42.41","55.454","56.337","13.927","0.883","3","246",NA
"95","R_29h1jP5aJ6jvcDr","standard","2","14","LP","3.49090909090909","57.344","60.838","61.758","4.414","0.92","3","249",NA
"96","R_29h1jP5aJ6jvcDr","standard","2","15","LP","5.5010771219302","62.771","68.285","69.145","6.374","0.86","3","252",NA
"97","R_29h1jP5aJ6jvcDr","standard","2","16","LP","8.51632916846187","70.15","78.677","79.548","9.398","0.871","3","255",NA
"98","R_29h1jP5aJ6jvcDr","standard","2","17","LP","0.264713485566566","80.55","80.827",NA,"1.282",NA,"0","255",NA
"99","R_29h1jP5aJ6jvcDr","standard","2","18","LP","3.49090909090909","82.838","86.333","87.071","4.233","0.738","3","258",NA
"100","R_29h1jP5aJ6jvcDr","standard","2","19","LP","5.5010771219302","88.082","93.595","94.367","6.285","0.772","3","261",NA
"101","R_29h1jP5aJ6jvcDr","standard","2","20","LP","3.49090909090909","95.377","98.869","99.746","4.369","0.877","3","264",NA
"102","R_29h1jP5aJ6jvcDr","standard","2","21","LP","5.5010771219302","100.755","106.262","107.07","6.315","0.808","3","267",NA
"103","R_29h1jP5aJ6jvcDr","standard","2","22","LP","30","108.083","138.103","138.819","30.736","0.716","3","270",NA
"104","R_29h1jP5aJ6jvcDr","standard","2","23","LP","2.15079707022835","139.824","141.977","142.697","2.873","0.72","3","273",NA
"105","R_29h1jP5aJ6jvcDr","standard","2","24","LP","5.5010771219302","143.717","149.222","150.052","6.335","0.83","3","276",NA
"106","R_29h1jP5aJ6jvcDr","standard","2","25","LP","2.15079707022835","151.059","153.215","154.035","2.976","0.82","3","279",NA
"107","R_29h1jP5aJ6jvcDr","standard","2","26","LP","1.25738905644119","155.036","156.297","157.233","2.197","0.936","3","282",NA
"108","R_29h1jP5aJ6jvcDr","standard","2","27","LP","30","158.238","NaN","167.321","9.083","NaN","0","282",NA
"109","R_29h1jP5aJ6jvcDr","standard","2","28","LP","19.8235243429556","168.331","188.169","188.949","20.618","0.78","3","285",NA
"110","R_29h1jP5aJ6jvcDr","standard","2","29","LP","0.264713485566566","189.951","190.223","190.96","1.009","0.737","3","288",NA
"111","R_29h1jP5aJ6jvcDr","standard","2","30","LP","30","191.97","221.974","222.67","30.7","0.696","3","291",NA
"112","R_29h1jP5aJ6jvcDr","standard","2","31","LP","2.15079707022835","223.693","225.855","226.581","2.888","0.726","3","294",NA
"113","R_29h1jP5aJ6jvcDr","standard","2","32","LP","3.49090909090909","227.62","231.113","231.913","4.293","0.8","3","297",NA
"114","R_29h1jP5aJ6jvcDr","standard","2","33","LP","1.25738905644119","232.918","234.186","234.964","2.046","0.778","3","300",NA
"115","R_29h1jP5aJ6jvcDr","standard","2","34","LP","5.5010771219302","235.972","241.479","242.248","6.276","0.769","3","303",NA
"116","R_29h1jP5aJ6jvcDr","standard","2","35","LP","19.8235243429556","243.254","263.079","263.974","20.72","0.895","3","306",NA
"117","R_29h1jP5aJ6jvcDr","standard","2","36","LP","19.8235243429556","264.988","284.825","285.623","20.635","0.798","3","309",NA
"118","R_29h1jP5aJ6jvcDr","standard","2","37","LP","1.25738905644119","286.629","287.893","288.709","2.08","0.816","3","312",NA
"119","R_29h1jP5aJ6jvcDr","standard","2","38","LP","1.25738905644119","289.721","290.987","291.898","2.177","0.911","3","315",NA
"120","R_29h1jP5aJ6jvcDr","standard","2","39","LP","0.661783713916415","292.905","293.567","294.361","1.456","0.794","3","318",NA
"121","R_29h1jP5aJ6jvcDr","standard","2","40","LP","5.5010771219302","295.37","300.885","301.66","6.29","0.775","3","321",NA
"122","R_29h1jP5aJ6jvcDr","standard","2","41","LP","8.51632916846187","302.66","311.184","311.995","9.335","0.811","3","324",NA
"123","R_29h1jP5aJ6jvcDr","standard","2","42","LP","3.49090909090909","313.004","316.504","317.332","4.328","0.828","3","327",NA
"124","R_29h1jP5aJ6jvcDr","standard","2","43","LP","0.661783713916415","318.335","318.998","319.854","1.519","0.856","3","330",NA
"125","R_29h1jP5aJ6jvcDr","standard","2","44","LP","1.25738905644119","320.855","322.123","322.982","2.127","0.859","3","333",NA
"126","R_29h1jP5aJ6jvcDr","standard","2","45","LP","30","323.996","354.004","354.845","30.849","0.841","3","336",NA
"127","R_29h1jP5aJ6jvcDr","standard","2","46","LP","1.25738905644119","355.848","357.105","357.925","2.077","0.82","3","339",NA
"128","R_29h1jP5aJ6jvcDr","standard","2","47","LP","0.264713485566566","358.927","359.207",NA,"1.287",NA,"0","339",NA
"129","R_29h1jP5aJ6jvcDr","standard","2","48","LP","1.25738905644119","361.215","362.48","363.215","2","0.735","3","342",NA
"130","R_29h1jP5aJ6jvcDr","standard","2","49","LP","1.25738905644119","364.215","365.486","366.304","2.089","0.818","3","345",NA
"131","R_29h1jP5aJ6jvcDr","standard","2","50","LP","0.264713485566566","367.322","367.596","368.382","1.06","0.786","3","348",NA
"132","R_29h1jP5aJ6jvcDr","standard","2","51","LP","30","369.384","399.39","400.172","30.788","0.782","3","351",NA
"133","R_29h1jP5aJ6jvcDr","standard","2","52","LP","3.49090909090909","401.181","404.679","405.517","4.336","0.838","3","354",NA
"134","R_29h1jP5aJ6jvcDr","standard","2","53","LP","3.49090909090909","406.518","410.03","410.855","4.337","0.825","3","357",NA
"135","R_29h1jP5aJ6jvcDr","standard","2","54","LP","0.264713485566566","411.858","412.127","412.913","1.055","0.786","3","360",NA
"136","R_29h1jP5aJ6jvcDr","standard","2","55","LP","2.15079707022835","413.917","416.069","416.931","3.014","0.862","3","363",NA
"137","R_29h1jP5aJ6jvcDr","standard","2","56","LP","1.25738905644119","417.947","419.227","420.072","2.125","0.845","3","366",NA
"138","R_29h1jP5aJ6jvcDr","standard","2","57","LP","30","421.078","451.09","451.844","30.766","0.754","3","369",NA
"139","R_29h1jP5aJ6jvcDr","standard","2","58","LP","0.264713485566566","452.846","453.118",NA,"1.291",NA,"0","369",NA
"140","R_29h1jP5aJ6jvcDr","standard","2","59","LP","5.5010771219302","455.142","460.648","461.485","6.343","0.837","3","372",NA
"141","R_29h1jP5aJ6jvcDr","standard","2","60","LP","30","462.49","492.494","493.162","30.672","0.668","3","375",NA
"142","R_29h1jP5aJ6jvcDr","standard","2","61","LP","5.5010771219302","494.169","499.684","500.421","6.252","0.737","3","378",NA
"143","R_29h1jP5aJ6jvcDr","standard","2","62","LP","1.25738905644119","501.433","502.7","503.476","2.043","0.776","3","381",NA
"144","R_29h1jP5aJ6jvcDr","standard","2","63","LP","8.51632916846187","504.479","513.003","513.872","9.393","0.869","3","384",NA
"145","R_29h1jP5aJ6jvcDr","standard","2","64","LP","0.264713485566566","514.88","515.151","515.974","1.094","0.823","3","387",NA
"146","R_29h1jP5aJ6jvcDr","standard","2","65","LP","0.661783713916415","516.979","517.667","518.43","1.451","0.763","3","390",NA
"147","R_29h1jP5aJ6jvcDr","standard","2","66","LP","0.661783713916415","519.43","520.102","521.012","1.582","0.91","3","393",NA
"148","R_29h1jP5aJ6jvcDr","standard","2","67","LP","19.8235243429556","522.019","NaN","531.556","9.537","NaN","0","393",NA
"149","R_29h1jP5aJ6jvcDr","standard","2","68","LP","1.25738905644119","532.56","533.824","534.87","2.31","1.046","3","396",NA
"150","R_29h1jP5aJ6jvcDr","standard","2","69","LP","0.661783713916415","535.879","536.542","537.454","1.575","0.912","3","399",NA
"151","R_29h1jP5aJ6jvcDr","standard","2","70","LP","30","538.464","NaN","543.824","5.36","NaN","0","399",NA
"152","R_29h1jP5aJ6jvcDr","standard","2","71","LP","13.0392072382594","544.84","557.886","558.707","13.867","0.821","3","402",NA
"153","R_29h1jP5aJ6jvcDr","standard","2","72","LP","8.51632916846187","559.717","568.237","569.165","9.448","0.928","3","405",NA
"154","R_29h1jP5aJ6jvcDr","standard","2","73","LP","1.25738905644119","570.172","571.43","572.224","2.052","0.794","3","408",NA
"155","R_29h1jP5aJ6jvcDr","standard","2","74","LP","30","573.229","NaN","584.112","10.883","NaN","0","408",NA
"156","R_29h1jP5aJ6jvcDr","standard","2","75","LP","1.25738905644119","585.113","586.379","587.257","2.144","0.878","3","411",NA
"157","R_29h1jP5aJ6jvcDr","standard","2","76","LP","5.5010771219302","588.262","NaN","592.019","3.757","NaN","0","411",NA
"158","R_29h1jP5aJ6jvcDr","standard","2","77","LP","5.5010771219302","593.022","598.526","599.281","6.259","0.755","3","414",NA
