"","subject_id","condition","n_block","n_trialIdx","f_timing_condition","n_scheduled_delay","n_trial_start_time","n_rewarded_time_fin","n_sell_time_fin","n_time_waited_fin","RT_fin","n_trial_earnings_fin","n_total_earnings_fin","keypress_times"
"1","R_290u6xxbzmNV0Hm","standard","1","1","HP","14","0.001","14.006","14.313","14.312","0.307","3","3",""
"2","R_290u6xxbzmNV0Hm","standard","1","2","HP","12","15.314","27.324","27.588","12.274","0.264","3","6",""
"3","R_290u6xxbzmNV0Hm","standard","1","3","HP","10","28.59","38.597","38.927","10.337","0.33","3","9",""
"4","R_290u6xxbzmNV0Hm","standard","1","4","HP","4","39.934","43.942","44.281","4.347","0.339","3","12",""
"5","R_290u6xxbzmNV0Hm","standard","1","5","HP","6","45.288","51.301","51.635","6.347","0.334","3","15",""
"6","R_290u6xxbzmNV0Hm","standard","1","6","HP","14","52.638","66.648","66.992","14.354","0.344","3","18",""
"7","R_290u6xxbzmNV0Hm","standard","1","7","HP","8","67.998","76.007","76.36","8.362","0.353","3","21",""
"8","R_290u6xxbzmNV0Hm","standard","1","8","HP","12","77.366","89.382","89.704","12.338","0.322","3","24",""
"9","R_290u6xxbzmNV0Hm","standard","1","9","HP","6","90.709","96.718","97.042","6.333","0.324","3","27",""
"10","R_290u6xxbzmNV0Hm","standard","1","10","HP","4","98.057","102.062","102.406","4.349","0.344","3","30",""
"11","R_290u6xxbzmNV0Hm","standard","1","11","HP","12","103.406","115.41","115.705","12.299","0.295","3","33",""
"12","R_290u6xxbzmNV0Hm","standard","1","12","HP","18","116.707","134.713","135.057","18.35","0.344","3","36",""
"13","R_290u6xxbzmNV0Hm","standard","1","13","HP","2","136.072","138.078","138.475","2.403","0.397","3","39",""
"14","R_290u6xxbzmNV0Hm","standard","1","14","HP","4","139.478","143.488","143.817","4.339","0.329","3","42",""
"15","R_290u6xxbzmNV0Hm","standard","1","15","HP","20","144.819","164.837","165.16","20.341","0.323","3","45",""
"16","R_290u6xxbzmNV0Hm","standard","1","16","HP","14","166.171","180.179","180.472","14.301","0.293","3","48",""
"17","R_290u6xxbzmNV0Hm","standard","1","17","HP","6","181.49","187.502","187.909","6.419","0.407","3","51",""
"18","R_290u6xxbzmNV0Hm","standard","1","18","HP","8","188.921","196.926","197.248","8.327","0.322","3","54",""
"19","R_290u6xxbzmNV0Hm","standard","1","19","HP","18","198.254","216.262","216.627","18.373","0.365","3","57",""
"20","R_290u6xxbzmNV0Hm","standard","1","20","HP","12","217.631","229.64","230.036","12.405","0.396","3","60",""
"21","R_290u6xxbzmNV0Hm","standard","1","21","HP","8","231.039","239.05","239.503","8.464","0.453","3","63",""
"22","R_290u6xxbzmNV0Hm","standard","1","22","HP","2","240.503","242.51","243.098","2.595","0.588","3","66",""
"23","R_290u6xxbzmNV0Hm","standard","1","23","HP","10","244.103","254.11","NA","11.014","NA","0","66",""
"24","R_290u6xxbzmNV0Hm","standard","1","24","HP","10","256.124","266.126","266.432","10.308","0.306","3","69",""
"25","R_290u6xxbzmNV0Hm","standard","1","25","HP","16","267.439","283.446","283.815","16.376","0.369","3","72",""
"26","R_290u6xxbzmNV0Hm","standard","1","26","HP","16","284.815","300.816","301.174","16.359","0.358","3","75",""
"27","R_290u6xxbzmNV0Hm","standard","1","27","HP","6","302.183","308.202","309.043","6.86","0.841","3","78",""
"28","R_290u6xxbzmNV0Hm","standard","1","28","HP","20","310.056","330.062","330.381","20.325","0.319","3","81",""
"29","R_290u6xxbzmNV0Hm","standard","1","29","HP","10","331.383","341.39","341.76","10.377","0.37","3","84",""
"30","R_290u6xxbzmNV0Hm","standard","1","30","HP","10","342.774","352.782","353.137","10.363","0.355","3","87",""
"31","R_290u6xxbzmNV0Hm","standard","1","31","HP","4","354.142","358.155","358.502","4.36","0.347","3","90",""
"32","R_290u6xxbzmNV0Hm","standard","1","32","HP","16","359.502","375.517","375.835","16.333","0.318","3","93",""
"33","R_290u6xxbzmNV0Hm","standard","1","33","HP","6","376.846","382.854","383.203","6.357","0.349","3","96",""
"34","R_290u6xxbzmNV0Hm","standard","1","34","HP","4","384.22","388.231","388.593","4.373","0.362","3","99",""
"35","R_290u6xxbzmNV0Hm","standard","1","35","HP","18","389.607","407.608","407.937","18.33","0.329","3","102",""
"36","R_290u6xxbzmNV0Hm","standard","1","36","HP","4","408.951","412.961","413.381","4.43","0.42","3","105",""
"37","R_290u6xxbzmNV0Hm","standard","1","37","HP","16","414.382","430.401","430.726","16.344","0.325","3","108",""
"38","R_290u6xxbzmNV0Hm","standard","1","38","HP","4","431.736","435.74","436.17","4.434","0.43","3","111",""
"39","R_290u6xxbzmNV0Hm","standard","1","39","HP","16","437.186","453.206","453.501","16.315","0.295","3","114",""
"40","R_290u6xxbzmNV0Hm","standard","1","40","HP","4","454.514","458.514","458.872","4.358","0.358","3","117",""
"41","R_290u6xxbzmNV0Hm","standard","1","41","HP","14","459.878","473.896","474.233","14.355","0.337","3","120",""
"42","R_290u6xxbzmNV0Hm","standard","1","42","HP","8","475.238","483.246","483.601","8.363","0.355","3","123",""
"43","R_290u6xxbzmNV0Hm","standard","1","43","HP","18","484.607","502.621","503.004","18.397","0.383","3","126",""
"44","R_290u6xxbzmNV0Hm","standard","1","44","HP","14","504.007","518.02","518.325","14.318","0.305","3","129",""
"45","R_290u6xxbzmNV0Hm","standard","1","45","HP","4","519.327","523.34","523.724","4.397","0.384","3","132",""
"46","R_290u6xxbzmNV0Hm","standard","1","46","HP","20","524.737","544.752","545.078","20.341","0.326","3","135",""
"47","R_290u6xxbzmNV0Hm","standard","1","47","HP","4","546.086","550.099","550.466","4.38","0.367","3","138",""
"48","R_290u6xxbzmNV0Hm","standard","1","48","HP","12","551.485","563.487","563.834","12.349","0.347","3","141",""
"49","R_290u6xxbzmNV0Hm","standard","1","49","HP","6","564.838","570.846","571.404","6.566","0.558","3","144",""
"50","R_290u6xxbzmNV0Hm","standard","1","50","HP","12","572.419","584.42","584.808","12.389","0.388","3","147",""
"51","R_290u6xxbzmNV0Hm","standard","1","51","HP","8","585.816","593.825","594.193","8.377","0.368","3","150",""
"52","R_290u6xxbzmNV0Hm","standard","1","52","HP","12","595.205","607.21","607.54","12.335","0.33","3","153",""
"53","R_290u6xxbzmNV0Hm","standard","1","53","HP","14","608.549","622.558","623.049","14.5","0.491","3","156",""
"54","R_290u6xxbzmNV0Hm","standard","1","54","HP","2","624.059","626.062","626.49","2.431","0.428","3","159",""
"55","R_290u6xxbzmNV0Hm","standard","1","55","HP","12","627.506","639.516","640.025","12.519","0.509","3","162",""
"56","R_290u6xxbzmNV0Hm","standard","1","56","HP","10","641.028","651.035","651.379","10.351","0.344","3","165",""
"57","R_290u6xxbzmNV0Hm","standard","1","57","HP","8","652.382","660.405","660.742","8.36","0.337","3","168",""
"58","R_290u6xxbzmNV0Hm","standard","1","58","HP","18","661.752","679.758","680.065","18.313","0.307","3","171",""
"59","R_290u6xxbzmNV0Hm","standard","1","59","HP","2","681.072","683.078","683.483","2.411","0.405","3","174",""
"60","R_290u6xxbzmNV0Hm","standard","1","60","HP","6","684.486","690.495","690.816","6.33","0.321","3","177",""
"61","R_290u6xxbzmNV0Hm","standard","1","61","HP","14","691.822","705.831","706.193","14.371","0.362","3","180",""
"62","R_290u6xxbzmNV0Hm","standard","1","62","HP","6","707.206","713.21","713.672","6.466","0.462","3","183",""
"63","R_290u6xxbzmNV0Hm","standard","1","63","HP","8","714.675","722.683","723.084","8.409","0.401","3","186",""
"64","R_290u6xxbzmNV0Hm","standard","1","64","HP","12","724.088","736.094","736.442","12.354","0.348","3","189",""
"65","R_290u6xxbzmNV0Hm","standard","1","65","HP","14","737.456","751.469","751.753","14.297","0.284","3","192",""
"66","R_290u6xxbzmNV0Hm","standard","1","66","HP","10","752.762","762.766","763.214","10.452","0.448","3","195",""
"67","R_290u6xxbzmNV0Hm","standard","1","67","HP","20","764.225","784.24","784.607","20.382","0.367","3","198",""
"68","R_290u6xxbzmNV0Hm","standard","1","68","HP","16","785.611","801.621","801.974","16.363","0.353","3","201",""
"69","R_290u6xxbzmNV0Hm","standard","1","69","HP","16","802.986","819.004","819.312","16.326","0.308","3","204",""
"70","R_290u6xxbzmNV0Hm","standard","1","70","HP","18","820.316","838.32","838.629","18.313","0.309","3","207",""
"71","R_290u6xxbzmNV0Hm","standard","1","71","HP","12","839.63","851.639","851.948","12.318","0.309","3","210",""
"72","R_290u6xxbzmNV0Hm","standard","1","72","HP","2","852.95","854.966","855.445","2.495","0.479","3","213",""
"73","R_290u6xxbzmNV0Hm","standard","1","73","HP","14","856.446","870.455","870.758","14.312","0.303","3","216",""
"74","R_290u6xxbzmNV0Hm","standard","1","74","HP","16","871.781","887.783","888.17","16.389","0.387","3","219",""
"75","R_290u6xxbzmNV0Hm","standard","2","1","LP","2.15079707022835","0","2.157","2.48","2.48","0.323","3","222",NA
"76","R_290u6xxbzmNV0Hm","standard","2","2","LP","0.661783713916415","3.496","4.166","4.509","1.013","0.343","3","225",NA
"77","R_290u6xxbzmNV0Hm","standard","2","3","LP","1.25738905644119","5.514","6.787","7.108","1.594","0.321","3","228",NA
"78","R_290u6xxbzmNV0Hm","standard","2","4","LP","2.15079707022835","8.117","10.276","10.634","2.517","0.358","3","231",NA
"79","R_290u6xxbzmNV0Hm","standard","2","5","LP","0.264713485566566","11.646","11.915","12.314","0.668","0.399","3","234",NA
"80","R_290u6xxbzmNV0Hm","standard","2","6","LP","30","13.32","43.337","43.707","30.387","0.37","3","237",NA
"81","R_290u6xxbzmNV0Hm","standard","2","7","LP","1.25738905644119","44.714","45.98","46.358","1.644","0.378","3","240",NA
"82","R_290u6xxbzmNV0Hm","standard","2","8","LP","13.0392072382594","47.366","NaN","52.824","5.458","NaN","0","240",NA
"83","R_290u6xxbzmNV0Hm","standard","2","9","LP","0.264713485566566","53.827","54.094","54.445","0.618","0.351","3","243",NA
"84","R_290u6xxbzmNV0Hm","standard","2","10","LP","13.0392072382594","55.453","NaN","60.175","4.722","NaN","0","243",NA
"85","R_290u6xxbzmNV0Hm","standard","2","11","LP","5.5010771219302","61.182","66.689","67.01","5.828","0.321","3","246",NA
"86","R_290u6xxbzmNV0Hm","standard","2","12","LP","3.49090909090909","68.013","71.505","71.851","3.838","0.346","3","249",NA
"87","R_290u6xxbzmNV0Hm","standard","2","13","LP","19.8235243429556","72.857","NaN","82.533","9.676","NaN","0","249",NA
"88","R_290u6xxbzmNV0Hm","standard","2","14","LP","8.51632916846187","83.553","92.079","92.459","8.906","0.38","3","252",NA
"89","R_290u6xxbzmNV0Hm","standard","2","15","LP","0.264713485566566","93.462","93.728","94.133","0.671","0.405","3","255",NA
"90","R_290u6xxbzmNV0Hm","standard","2","16","LP","0.661783713916415","95.141","95.812","96.139","0.998","0.327","3","258",NA
"91","R_290u6xxbzmNV0Hm","standard","2","17","LP","2.15079707022835","97.147","99.305","99.903","2.756","0.598","3","261",NA
"92","R_290u6xxbzmNV0Hm","standard","2","18","LP","30","100.909","NaN","111.027","10.118","NaN","0","261",NA
"93","R_290u6xxbzmNV0Hm","standard","2","19","LP","8.51632916846187","112.029","120.552","121.152","9.123","0.6","3","264",NA
"94","R_290u6xxbzmNV0Hm","standard","2","20","LP","19.8235243429556","122.158","NaN","131.78","9.622","NaN","0","264",NA
"95","R_290u6xxbzmNV0Hm","standard","2","21","LP","0.264713485566566","132.792","133.071","133.501","0.709","0.43","3","267",NA
"96","R_290u6xxbzmNV0Hm","standard","2","22","LP","1.25738905644119","134.504","135.779","136.103","1.599","0.324","3","270",NA
"97","R_290u6xxbzmNV0Hm","standard","2","23","LP","30","137.113","NaN","146.841","9.728","NaN","0","270",NA
"98","R_290u6xxbzmNV0Hm","standard","2","24","LP","30","147.845","NaN","156.893","9.048","NaN","0","270",NA
"99","R_290u6xxbzmNV0Hm","standard","2","25","LP","13.0392072382594","157.915","NaN","167.736","9.821","NaN","0","270",NA
"100","R_290u6xxbzmNV0Hm","standard","2","26","LP","1.25738905644119","168.749","170.014","170.391","1.642","0.377","3","273",NA
"101","R_290u6xxbzmNV0Hm","standard","2","27","LP","8.51632916846187","171.397","179.919","180.294","8.897","0.375","3","276",NA
"102","R_290u6xxbzmNV0Hm","standard","2","28","LP","1.25738905644119","181.304","182.581","182.878","1.574","0.297","3","279",NA
"103","R_290u6xxbzmNV0Hm","standard","2","29","LP","3.49090909090909","183.888","187.387","187.77","3.882","0.383","3","282",NA
"104","R_290u6xxbzmNV0Hm","standard","2","30","LP","30","188.775","NaN","198.425","9.65","NaN","0","282",NA
"105","R_290u6xxbzmNV0Hm","standard","2","31","LP","2.15079707022835","199.43","201.584","201.88","2.45","0.296","3","285",NA
"106","R_290u6xxbzmNV0Hm","standard","2","32","LP","1.25738905644119","202.891","204.152","204.545","1.654","0.393","3","288",NA
"107","R_290u6xxbzmNV0Hm","standard","2","33","LP","3.49090909090909","205.55","209.045","209.367","3.817","0.322","3","291",NA
"108","R_290u6xxbzmNV0Hm","standard","2","34","LP","30","210.373","NaN","219.811","9.438","NaN","0","291",NA
"109","R_290u6xxbzmNV0Hm","standard","2","35","LP","13.0392072382594","220.813","NaN","230.51","9.697","NaN","0","291",NA
"110","R_290u6xxbzmNV0Hm","standard","2","36","LP","19.8235243429556","231.512","NaN","241.73","10.218","NaN","0","291",NA
"111","R_290u6xxbzmNV0Hm","standard","2","37","LP","8.51632916846187","242.745","251.27","251.774","9.029","0.504","3","294",NA
"112","R_290u6xxbzmNV0Hm","standard","2","38","LP","2.15079707022835","252.792","254.952","255.394","2.602","0.442","3","297",NA
"113","R_290u6xxbzmNV0Hm","standard","2","39","LP","2.15079707022835","256.397","258.556","258.862","2.465","0.306","3","300",NA
"114","R_290u6xxbzmNV0Hm","standard","2","40","LP","3.49090909090909","259.869","263.37","263.792","3.923","0.422","3","303",NA
"115","R_290u6xxbzmNV0Hm","standard","2","41","LP","19.8235243429556","264.806","NaN","276.609","11.803","NaN","0","303",NA
"116","R_290u6xxbzmNV0Hm","standard","2","42","LP","19.8235243429556","277.62","NaN","288.386","10.766","NaN","0","303",NA
"117","R_290u6xxbzmNV0Hm","standard","2","43","LP","3.49090909090909","289.4","292.907","293.333","3.933","0.426","3","306",NA
"118","R_290u6xxbzmNV0Hm","standard","2","44","LP","2.15079707022835","294.341","296.493","296.902","2.561","0.409","3","309",NA
"119","R_290u6xxbzmNV0Hm","standard","2","45","LP","5.5010771219302","297.914","303.423","303.881","5.967","0.458","3","312",NA
"120","R_290u6xxbzmNV0Hm","standard","2","46","LP","19.8235243429556","304.887","324.717","325.073","20.186","0.356","3","315",NA
"121","R_290u6xxbzmNV0Hm","standard","2","47","LP","13.0392072382594","326.077","339.117","339.475","13.398","0.358","3","318",NA
"122","R_290u6xxbzmNV0Hm","standard","2","48","LP","3.49090909090909","340.483","343.984","344.372","3.889","0.388","3","321",NA
"123","R_290u6xxbzmNV0Hm","standard","2","49","LP","1.25738905644119","345.378","346.637","347.018","1.64","0.381","3","324",NA
"124","R_290u6xxbzmNV0Hm","standard","2","50","LP","8.51632916846187","348.02","356.557","356.94","8.92","0.383","3","327",NA
"125","R_290u6xxbzmNV0Hm","standard","2","51","LP","1.25738905644119","357.955","359.223","359.65","1.695","0.427","3","330",NA
"126","R_290u6xxbzmNV0Hm","standard","2","52","LP","3.49090909090909","360.657","364.161","364.55","3.893","0.389","3","333",NA
"127","R_290u6xxbzmNV0Hm","standard","2","53","LP","0.264713485566566","365.558","365.829","366.41","0.852","0.581","3","336",NA
"128","R_290u6xxbzmNV0Hm","standard","2","54","LP","8.51632916846187","367.415","375.937","376.3","8.885","0.363","3","339",NA
"129","R_290u6xxbzmNV0Hm","standard","2","55","LP","5.5010771219302","377.307","382.818","383.308","6.001","0.49","3","342",NA
"130","R_290u6xxbzmNV0Hm","standard","2","56","LP","3.49090909090909","384.309","387.806","388.17","3.861","0.364","3","345",NA
"131","R_290u6xxbzmNV0Hm","standard","2","57","LP","19.8235243429556","389.173","NaN","400.316","11.143","NaN","0","345",NA
"132","R_290u6xxbzmNV0Hm","standard","2","58","LP","3.49090909090909","401.329","404.822",NA,"4.501",NA,"0","345",NA
"133","R_290u6xxbzmNV0Hm","standard","2","59","LP","8.51632916846187","406.847","415.376","415.669","8.822","0.293","3","348",NA
"134","R_290u6xxbzmNV0Hm","standard","2","60","LP","0.661783713916415","416.682","417.352","417.834","1.152","0.482","3","351",NA
"135","R_290u6xxbzmNV0Hm","standard","2","61","LP","0.661783713916415","418.837","419.502","419.896","1.059","0.394","3","354",NA
"136","R_290u6xxbzmNV0Hm","standard","2","62","LP","0.661783713916415","420.906","421.573","421.861","0.955","0.288","3","357",NA
"137","R_290u6xxbzmNV0Hm","standard","2","63","LP","3.49090909090909","422.869","426.37","426.732","3.863","0.362","3","360",NA
"138","R_290u6xxbzmNV0Hm","standard","2","64","LP","0.661783713916415","427.75","428.421","428.841","1.091","0.42","3","363",NA
"139","R_290u6xxbzmNV0Hm","standard","2","65","LP","1.25738905644119","429.848","431.11","431.436","1.588","0.326","3","366",NA
"140","R_290u6xxbzmNV0Hm","standard","2","66","LP","13.0392072382594","432.46","NaN","444.422","11.962","NaN","0","366",NA
"141","R_290u6xxbzmNV0Hm","standard","2","67","LP","30","445.439","NaN","456.353","10.914","NaN","0","366",NA
"142","R_290u6xxbzmNV0Hm","standard","2","68","LP","0.661783713916415","457.358","458.02","458.4","1.042","0.38","3","369",NA
"143","R_290u6xxbzmNV0Hm","standard","2","69","LP","2.15079707022835","459.407","461.572","461.903","2.496","0.331","3","372",NA
"144","R_290u6xxbzmNV0Hm","standard","2","70","LP","2.15079707022835","462.904","465.069","465.403","2.499","0.334","3","375",NA
"145","R_290u6xxbzmNV0Hm","standard","2","71","LP","0.661783713916415","466.406","467.069",NA,"1.681",NA,"0","375",NA
"146","R_290u6xxbzmNV0Hm","standard","2","72","LP","13.0392072382594","469.097","482.155","482.567","13.47","0.412","3","378",NA
"147","R_290u6xxbzmNV0Hm","standard","2","73","LP","19.8235243429556","483.586","503.415","503.783","20.197","0.368","3","381",NA
"148","R_290u6xxbzmNV0Hm","standard","2","74","LP","13.0392072382594","504.8","NaN","517.382","12.582","NaN","0","381",NA
"149","R_290u6xxbzmNV0Hm","standard","2","75","LP","8.51632916846187","518.396","526.914","527.335","8.939","0.421","3","384",NA
"150","R_290u6xxbzmNV0Hm","standard","2","76","LP","1.25738905644119","528.344","529.617","530.039","1.695","0.422","3","387",NA
"151","R_290u6xxbzmNV0Hm","standard","2","77","LP","3.49090909090909","531.049","534.542","534.911","3.862","0.369","3","390",NA
"152","R_290u6xxbzmNV0Hm","standard","2","78","LP","8.51632916846187","535.916","544.439","544.784","8.868","0.345","3","393",NA
"153","R_290u6xxbzmNV0Hm","standard","2","79","LP","3.49090909090909","545.79","549.287","549.642","3.852","0.355","3","396",NA
"154","R_290u6xxbzmNV0Hm","standard","2","80","LP","19.8235243429556","550.653","570.494","570.874","20.221","0.38","3","399",NA
"155","R_290u6xxbzmNV0Hm","standard","2","81","LP","5.5010771219302","571.893","577.409","577.805","5.912","0.396","3","402",NA
"156","R_290u6xxbzmNV0Hm","standard","2","82","LP","3.49090909090909","578.811","582.301","582.719","3.908","0.418","3","405",NA
"157","R_290u6xxbzmNV0Hm","standard","2","83","LP","3.49090909090909","583.723","587.217","587.586","3.863","0.369","3","408",NA
"158","R_290u6xxbzmNV0Hm","standard","2","84","LP","0.264713485566566","588.589","588.861","589.296","0.707","0.435","3","411",NA
"159","R_290u6xxbzmNV0Hm","standard","2","85","LP","8.51632916846187","590.301","598.818","599.277","8.976","0.459","3","414",NA
