"","subject_id","condition","n_block","n_trialIdx","f_timing_condition","n_scheduled_delay","n_trial_start_time","n_rewarded_time_fin","n_sell_time_fin","n_time_waited_fin","RT_fin","n_trial_earnings_fin","n_total_earnings_fin","keypress_times"
"1","R_2cp7thA27h2vish","standard","1","1","HP","16","0.003","16.022","16.892","16.889","0.87","3","3","c(""10629"", ""11583"", ""12171"", ""12499"", ""13157"", ""13353"")"
"2","R_2cp7thA27h2vish","standard","1","2","HP","14","17.894","31.906","NA","15.033","NA","0","0","c(""7568"", ""8068"", ""13682"")"
"3","R_2cp7thA27h2vish","standard","1","3","HP","20","33.92","53.925","54.663","20.743","0.738","3","3","c(""4059"", ""6291"", ""8161"", ""12959"", ""14209"", ""14545"", ""15420"", ""16122"", ""16909"")"
"4","R_2cp7thA27h2vish","standard","1","4","HP","16","55.67","71.678","72.287","16.617","0.609","3","6",""
"5","R_2cp7thA27h2vish","standard","1","5","HP","8","73.294","81.329","81.945","8.651","0.616","3","9",""
"6","R_2cp7thA27h2vish","standard","1","6","HP","4","82.955","86.958","NA","5.012","NA","0","9",""
"7","R_2cp7thA27h2vish","standard","1","7","HP","12","89.01","101.043","101.637","12.627","0.594","3","12",""
"8","R_2cp7thA27h2vish","standard","1","8","HP","20","102.637","122.647","123.218","20.581","0.571","3","15",""
"9","R_2cp7thA27h2vish","standard","1","9","HP","16","124.22","140.222","140.841","16.621","0.619","3","18",""
"10","R_2cp7thA27h2vish","standard","1","10","HP","8","141.851","149.862","150.449","8.598","0.587","3","21",""
"11","R_2cp7thA27h2vish","standard","1","11","HP","2","151.458","153.462","154.395","2.937","0.933","3","24",""
"12","R_2cp7thA27h2vish","standard","1","12","HP","16","155.4","171.407","172.038","16.638","0.631","3","27",""
"13","R_2cp7thA27h2vish","standard","1","13","HP","8","173.048","181.055","181.722","8.674","0.667","3","30",""
"14","R_2cp7thA27h2vish","standard","1","14","HP","8","182.727","190.729","191.422","8.695","0.693","3","33",""
"15","R_2cp7thA27h2vish","standard","1","15","HP","10","192.423","202.429","203.329","10.906","0.9","3","36",""
"16","R_2cp7thA27h2vish","standard","1","16","HP","20","204.33","224.335","224.928","20.598","0.593","3","39",""
"17","R_2cp7thA27h2vish","standard","1","17","HP","8","225.93","233.934","NA","9.027","NA","0","39",""
"18","R_2cp7thA27h2vish","standard","1","18","HP","4","235.959","239.966","240.728","4.769","0.762","3","39","3251"
"19","R_2cp7thA27h2vish","standard","1","19","HP","2","241.79","243.79","244.437","2.647","0.647","3","42",""
"20","R_2cp7thA27h2vish","standard","1","20","HP","20","245.452","265.454","266.06","20.608","0.606","3","45",""
"21","R_2cp7thA27h2vish","standard","1","21","HP","12","267.063","279.074","279.701","12.638","0.627","3","48",""
"22","R_2cp7thA27h2vish","standard","1","22","HP","18","280.702","298.742","299.381","18.679","0.639","3","51",""
"23","R_2cp7thA27h2vish","standard","1","23","HP","2","300.384","302.392","303.282","2.898","0.89","3","51","1679"
"24","R_2cp7thA27h2vish","standard","1","24","HP","14","304.304","318.31","318.989","14.685","0.679","3","54",""
"25","R_2cp7thA27h2vish","standard","1","25","HP","14","319.991","333.998","334.656","14.665","0.658","3","57",""
"26","R_2cp7thA27h2vish","standard","1","26","HP","16","335.664","351.67","352.259","16.595","0.589","3","60",""
"27","R_2cp7thA27h2vish","standard","1","27","HP","2","353.262","355.271","355.948","2.686","0.677","3","63",""
"28","R_2cp7thA27h2vish","standard","1","28","HP","2","356.951","358.959","359.665","2.714","0.706","3","66",""
"29","R_2cp7thA27h2vish","standard","1","29","HP","4","360.671","364.678","365.297","4.626","0.619","3","69",""
"30","R_2cp7thA27h2vish","standard","1","30","HP","18","366.302","384.311","384.998","18.696","0.687","3","72",""
"31","R_2cp7thA27h2vish","standard","1","31","HP","20","386.007","406.049","406.616","20.609","0.567","3","75",""
"32","R_2cp7thA27h2vish","standard","1","32","HP","6","407.622","413.63","414.264","6.642","0.634","3","78",""
"33","R_2cp7thA27h2vish","standard","1","33","HP","8","415.27","423.271","423.921","8.651","0.65","3","81",""
"34","R_2cp7thA27h2vish","standard","1","34","HP","6","424.922","430.928","431.518","6.596","0.59","3","84",""
"35","R_2cp7thA27h2vish","standard","1","35","HP","10","432.52","442.521","443.134","10.614","0.613","3","87",""
"36","R_2cp7thA27h2vish","standard","1","36","HP","12","444.135","456.144","456.754","12.619","0.61","3","90",""
"37","R_2cp7thA27h2vish","standard","1","37","HP","12","457.759","469.87","470.441","12.682","0.571","3","93",""
"38","R_2cp7thA27h2vish","standard","1","38","HP","4","471.466","475.475","476.141","4.675","0.666","3","96",""
"39","R_2cp7thA27h2vish","standard","1","39","HP","2","477.141","479.15","479.723","2.582","0.573","3","99",""
"40","R_2cp7thA27h2vish","standard","1","40","HP","14","480.725","494.789","495.407","14.682","0.618","3","102",""
"41","R_2cp7thA27h2vish","standard","1","41","HP","6","496.414","502.416","503.093","6.679","0.677","3","105",""
"42","R_2cp7thA27h2vish","standard","1","42","HP","12","504.102","516.124","516.846","12.744","0.722","3","105","5579"
"43","R_2cp7thA27h2vish","standard","1","43","HP","14","517.854","531.867","532.58","14.726","0.713","3","108",""
"44","R_2cp7thA27h2vish","standard","1","44","HP","8","533.582","541.59","NA","9.01","NA","0","108",""
"45","R_2cp7thA27h2vish","standard","1","45","HP","10","543.599","553.606","554.274","10.675","0.668","3","111",""
"46","R_2cp7thA27h2vish","standard","1","46","HP","10","555.278","565.286","566.042","10.764","0.756","3","114",""
"47","R_2cp7thA27h2vish","standard","1","47","HP","16","567.067","583.07","583.735","16.668","0.665","3","117",""
"48","R_2cp7thA27h2vish","standard","1","48","HP","4","584.743","588.75","589.404","4.661","0.654","3","120",""
"49","R_2cp7thA27h2vish","standard","1","49","HP","16","590.478","606.487","607.107","16.629","0.62","3","123",""
"50","R_2cp7thA27h2vish","standard","1","50","HP","14","608.111","622.111","622.787","14.676","0.676","3","126",""
"51","R_2cp7thA27h2vish","standard","1","51","HP","12","623.791","635.81","636.524","12.733","0.714","3","129",""
"52","R_2cp7thA27h2vish","standard","1","52","HP","18","637.529","655.534","656.182","18.653","0.648","3","132",""
"53","R_2cp7thA27h2vish","standard","1","53","HP","12","657.183","669.19","669.862","12.679","0.672","3","135",""
"54","R_2cp7thA27h2vish","standard","1","54","HP","10","670.863","680.87","681.56","10.697","0.69","3","138",""
"55","R_2cp7thA27h2vish","standard","1","55","HP","10","682.567","692.575","693.222","10.655","0.647","3","141",""
"56","R_2cp7thA27h2vish","standard","1","56","HP","12","694.228","706.231","706.895","12.667","0.664","3","144",""
"57","R_2cp7thA27h2vish","standard","1","57","HP","8","707.903","715.91","716.59","8.687","0.68","3","147",""
"58","R_2cp7thA27h2vish","standard","1","58","HP","14","717.595","731.598","732.347","14.752","0.749","3","150",""
"59","R_2cp7thA27h2vish","standard","1","59","HP","2","733.35","735.35","736.325","2.975","0.975","3","153",""
"60","R_2cp7thA27h2vish","standard","1","60","HP","8","737.328","745.334","745.981","8.653","0.647","3","156",""
"61","R_2cp7thA27h2vish","standard","1","61","HP","2","747.048","749.102","749.839","2.791","0.737","3","159",""
"62","R_2cp7thA27h2vish","standard","1","62","HP","20","750.846","770.854","771.562","20.716","0.708","3","162",""
"63","R_2cp7thA27h2vish","standard","1","63","HP","14","772.566","786.574","787.381","14.815","0.807","3","165",""
"64","R_2cp7thA27h2vish","standard","1","64","HP","8","788.382","796.39","797.21","8.828","0.82","3","168",""
"65","R_2cp7thA27h2vish","standard","1","65","HP","6","798.245","804.246","804.962","6.717","0.716","3","171",""
"66","R_2cp7thA27h2vish","standard","1","66","HP","20","805.966","825.975","826.583","20.617","0.608","3","174",""
"67","R_2cp7thA27h2vish","standard","1","67","HP","16","827.591","843.597","844.225","16.634","0.628","3","177",""
"68","R_2cp7thA27h2vish","standard","1","68","HP","8","845.23","853.239","853.871","8.641","0.632","3","180",""
"69","R_2cp7thA27h2vish","standard","1","69","HP","16","854.881","870.887","871.576","16.695","0.689","3","183",""
"70","R_2cp7thA27h2vish","standard","1","70","HP","14","872.582","886.591","887.234","14.652","0.643","3","186",""
"71","R_2cp7thA27h2vish","standard","1","71","HP","10","888.238","898.246","898.92","10.682","0.674","3","189",""
"72","R_2cp7thA27h2vish","standard","2","1","LP","8.51632916846187","0.001","NaN","3.142","3.141","NaN","0","189",NA
"73","R_2cp7thA27h2vish","standard","2","2","LP","19.8235243429556","4.149","NaN","9.256","5.107","NaN","0","189",NA
"74","R_2cp7thA27h2vish","standard","2","3","LP","19.8235243429556","10.26","NaN","20.782","10.522","NaN","0","189",NA
"75","R_2cp7thA27h2vish","standard","2","4","LP","5.5010771219302","21.788","27.293","27.946","6.158","0.653","3","192",NA
"76","R_2cp7thA27h2vish","standard","2","5","LP","8.51632916846187","28.948","37.47","38.113","9.165","0.643","3","195",NA
"77","R_2cp7thA27h2vish","standard","2","6","LP","0.661783713916415","39.116","39.781","40.765","1.649","0.984","3","198",NA
"78","R_2cp7thA27h2vish","standard","2","7","LP","30","41.772","NaN","45.597","3.825","NaN","0","198",NA
"79","R_2cp7thA27h2vish","standard","2","8","LP","13.0392072382594","46.605","59.748","60.423","13.818","0.675","3","201",NA
"80","R_2cp7thA27h2vish","standard","2","9","LP","0.264713485566566","61.424","61.693","62.338","0.914","0.645","3","204",NA
"81","R_2cp7thA27h2vish","standard","2","10","LP","13.0392072382594","63.34","NaN","67.751","4.411","NaN","0","204",NA
"82","R_2cp7thA27h2vish","standard","2","11","LP","3.49090909090909","68.757","72.252","72.938","4.181","0.686","3","207",NA
"83","R_2cp7thA27h2vish","standard","2","12","LP","8.51632916846187","73.941","82.46","83.05","9.109","0.59","3","210",NA
"84","R_2cp7thA27h2vish","standard","2","13","LP","0.661783713916415","84.053","84.717","85.425","1.372","0.708","3","213",NA
"85","R_2cp7thA27h2vish","standard","2","14","LP","8.51632916846187","86.428","NaN","92.229","5.801","NaN","0","213",NA
"86","R_2cp7thA27h2vish","standard","2","15","LP","3.49090909090909","93.236","96.813","97.505","4.269","0.692","3","216",NA
"87","R_2cp7thA27h2vish","standard","2","16","LP","5.5010771219302","98.508","104.013","104.723","6.215","0.71","3","219",NA
"88","R_2cp7thA27h2vish","standard","2","17","LP","19.8235243429556","105.724","NaN","117.309","11.585","NaN","0","219",NA
"89","R_2cp7thA27h2vish","standard","2","18","LP","30","118.311","NaN","127.438","9.127","NaN","0","219",NA
"90","R_2cp7thA27h2vish","standard","2","19","LP","30","128.445","NaN","150.944","22.499","NaN","0","219",NA
"91","R_2cp7thA27h2vish","standard","2","20","LP","30","151.948","NaN","162.203","10.255","NaN","0","219",NA
"92","R_2cp7thA27h2vish","standard","2","21","LP","5.5010771219302","163.206","168.726","169.395","6.189","0.669","3","222",NA
"93","R_2cp7thA27h2vish","standard","2","22","LP","0.264713485566566","170.397","170.673","171.581","1.184","0.908","3","225",NA
"94","R_2cp7thA27h2vish","standard","2","23","LP","0.264713485566566","172.589","172.874","173.594","1.005","0.72","3","228",NA
"95","R_2cp7thA27h2vish","standard","2","24","LP","3.49090909090909","174.596","178.133","178.814","4.218","0.681","3","231",NA
"96","R_2cp7thA27h2vish","standard","2","25","LP","1.25738905644119","179.819","181.085","181.724","1.905","0.639","3","234",NA
"97","R_2cp7thA27h2vish","standard","2","26","LP","8.51632916846187","182.725","191.248","191.488","8.763","0.24","3","237",NA
"98","R_2cp7thA27h2vish","standard","2","27","LP","8.51632916846187","192.492","201.013","201.673","9.181","0.66","3","240",NA
"99","R_2cp7thA27h2vish","standard","2","28","LP","5.5010771219302","202.677","208.224","208.977","6.3","0.753","3","243",NA
"100","R_2cp7thA27h2vish","standard","2","29","LP","8.51632916846187","209.98","218.501","219.113","9.133","0.612","3","246",NA
"101","R_2cp7thA27h2vish","standard","2","30","LP","19.8235243429556","220.117","NaN","235.563","15.446","NaN","0","246",NA
"102","R_2cp7thA27h2vish","standard","2","31","LP","8.51632916846187","236.564","245.084","245.64","9.076","0.556","3","249",NA
"103","R_2cp7thA27h2vish","standard","2","32","LP","2.15079707022835","246.645","248.797","249.751","3.106","0.954","3","252",NA
"104","R_2cp7thA27h2vish","standard","2","33","LP","2.15079707022835","250.756","252.908","253.513","2.757","0.605","3","255",NA
"105","R_2cp7thA27h2vish","standard","2","34","LP","19.8235243429556","254.516","NaN","263.77","9.254","NaN","0","255",NA
"106","R_2cp7thA27h2vish","standard","2","35","LP","3.49090909090909","264.773","268.269","268.39","3.617","0.121","3","258",NA
"107","R_2cp7thA27h2vish","standard","2","36","LP","13.0392072382594","269.396","NaN","274.12","4.724","NaN","0","258",NA
"108","R_2cp7thA27h2vish","standard","2","37","LP","30","275.124","NaN","284.308","9.184","NaN","0","258",NA
"109","R_2cp7thA27h2vish","standard","2","38","LP","0.661783713916415","285.33","285.996","286.729","1.399","0.733","3","261",NA
"110","R_2cp7thA27h2vish","standard","2","39","LP","13.0392072382594","287.732","NaN","290.103","2.371","NaN","0","261",NA
"111","R_2cp7thA27h2vish","standard","2","40","LP","0.264713485566566","291.183","291.453","292.086","0.903","0.633","3","264",NA
"112","R_2cp7thA27h2vish","standard","2","41","LP","5.5010771219302","293.092","NaN","297.823","4.731","NaN","0","264",NA
"113","R_2cp7thA27h2vish","standard","2","42","LP","19.8235243429556","298.875","NaN","304.785","5.91","NaN","0","264",NA
"114","R_2cp7thA27h2vish","standard","2","43","LP","1.25738905644119","305.789","307.052","307.718","1.929","0.666","3","267",NA
"115","R_2cp7thA27h2vish","standard","2","44","LP","2.15079707022835","308.725","310.877","311.476","2.751","0.599","3","270",NA
"116","R_2cp7thA27h2vish","standard","2","45","LP","13.0392072382594","312.477","NaN","318.053","5.576","NaN","0","270",NA
"117","R_2cp7thA27h2vish","standard","2","46","LP","3.49090909090909","319.061","322.556","323.256","4.195","0.7","3","273",NA
"118","R_2cp7thA27h2vish","standard","2","47","LP","13.0392072382594","324.274","NaN","330.351","6.077","NaN","0","273",NA
"119","R_2cp7thA27h2vish","standard","2","48","LP","1.25738905644119","331.356","332.621","333.274","1.918","0.653","3","276",NA
"120","R_2cp7thA27h2vish","standard","2","49","LP","5.5010771219302","334.276","339.78","340.443","6.167","0.663","3","279",NA
"121","R_2cp7thA27h2vish","standard","2","50","LP","2.15079707022835","341.444","343.596","344.269","2.825","0.673","3","282",NA
"122","R_2cp7thA27h2vish","standard","2","51","LP","5.5010771219302","345.276","350.781","351.345","6.069","0.564","3","285",NA
"123","R_2cp7thA27h2vish","standard","2","52","LP","0.661783713916415","352.348","353.01",NA,"1.665",NA,"0","285",NA
"124","R_2cp7thA27h2vish","standard","2","53","LP","13.0392072382594","355.017","NaN","361.36","6.343","NaN","0","285",NA
"125","R_2cp7thA27h2vish","standard","2","54","LP","5.5010771219302","362.365","367.876","368.57","6.205","0.694","3","288",NA
"126","R_2cp7thA27h2vish","standard","2","55","LP","1.25738905644119","369.584","370.843","371.434","1.85","0.591","3","291",NA
"127","R_2cp7thA27h2vish","standard","2","56","LP","0.264713485566566","372.436","372.708","373.364","0.928","0.656","3","294",NA
"128","R_2cp7thA27h2vish","standard","2","57","LP","0.264713485566566","374.372","374.645","375.244","0.872","0.599","3","297",NA
"129","R_2cp7thA27h2vish","standard","2","58","LP","0.661783713916415","376.244","376.915","377.518","1.274","0.603","3","300",NA
"130","R_2cp7thA27h2vish","standard","2","59","LP","3.49090909090909","378.524","382.02","382.67","4.146","0.65","3","303",NA
"131","R_2cp7thA27h2vish","standard","2","60","LP","19.8235243429556","383.677","NaN","389.783","6.106","NaN","0","303",NA
"132","R_2cp7thA27h2vish","standard","2","61","LP","13.0392072382594","390.803","NaN","396.36","5.557","NaN","0","303",NA
"133","R_2cp7thA27h2vish","standard","2","62","LP","5.5010771219302","397.365","402.868","403.501","6.136","0.633","3","306",NA
"134","R_2cp7thA27h2vish","standard","2","63","LP","19.8235243429556","404.508","NaN","409.999","5.491","NaN","0","306",NA
"135","R_2cp7thA27h2vish","standard","2","64","LP","30","411.014","NaN","414.69","3.676","NaN","0","306",NA
"136","R_2cp7thA27h2vish","standard","2","65","LP","5.5010771219302","415.693","421.196","421.845","6.152","0.649","3","309",NA
"137","R_2cp7thA27h2vish","standard","2","66","LP","0.264713485566566","422.852","423.125","423.838","0.986","0.713","3","312",NA
"138","R_2cp7thA27h2vish","standard","2","67","LP","0.661783713916415","424.845","425.512","426.149","1.304","0.637","3","315",NA
"139","R_2cp7thA27h2vish","standard","2","68","LP","8.51632916846187","427.157","435.676","436.335","9.178","0.659","3","318",NA
"140","R_2cp7thA27h2vish","standard","2","69","LP","0.264713485566566","437.341","437.607","438.372","1.031","0.765","3","321",NA
"141","R_2cp7thA27h2vish","standard","2","70","LP","0.264713485566566","439.381","439.653","440.284","0.903","0.631","3","324",NA
"142","R_2cp7thA27h2vish","standard","2","71","LP","5.5010771219302","441.388","446.892","447.398","6.01","0.506","3","327",NA
"143","R_2cp7thA27h2vish","standard","2","72","LP","8.51632916846187","448.405","456.962","457.557","9.152","0.595","3","330",NA
"144","R_2cp7thA27h2vish","standard","2","73","LP","19.8235243429556","458.558","NaN","472.234","13.676","NaN","0","330",NA
"145","R_2cp7thA27h2vish","standard","2","74","LP","8.51632916846187","473.245","NaN","477.617","4.372","NaN","0","330",NA
"146","R_2cp7thA27h2vish","standard","2","75","LP","3.49090909090909","478.625","482.115","482.782","4.157","0.667","3","333",NA
"147","R_2cp7thA27h2vish","standard","2","76","LP","1.25738905644119","483.788","485.051","485.767","1.979","0.716","3","336",NA
"148","R_2cp7thA27h2vish","standard","2","77","LP","1.25738905644119","486.767","488.082","488.715","1.948","0.633","3","339",NA
"149","R_2cp7thA27h2vish","standard","2","78","LP","5.5010771219302","489.716","495.219","495.355","5.639","0.136","3","342",NA
"150","R_2cp7thA27h2vish","standard","2","79","LP","5.5010771219302","496.356","501.859","502.527","6.171","0.668","3","345",NA
"151","R_2cp7thA27h2vish","standard","2","80","LP","3.49090909090909","503.678","507.171","507.838","4.16","0.667","3","348",NA
"152","R_2cp7thA27h2vish","standard","2","81","LP","2.15079707022835","508.865","511.019","511.675","2.81","0.656","3","351",NA
"153","R_2cp7thA27h2vish","standard","2","82","LP","0.661783713916415","512.683","513.348","514.129","1.446","0.781","3","354",NA
"154","R_2cp7thA27h2vish","standard","2","83","LP","19.8235243429556","515.131","NaN","520.866","5.735","NaN","0","354",NA
"155","R_2cp7thA27h2vish","standard","2","84","LP","0.661783713916415","521.867","522.531","523.167","1.3","0.636","3","357",NA
"156","R_2cp7thA27h2vish","standard","2","85","LP","13.0392072382594","524.172","NaN","529.954","5.782","NaN","0","357",NA
"157","R_2cp7thA27h2vish","standard","2","86","LP","8.51632916846187","530.956","NaN","536.248","5.292","NaN","0","357",NA
"158","R_2cp7thA27h2vish","standard","2","87","LP","8.51632916846187","537.252","NaN","545.136","7.884","NaN","0","357",NA
"159","R_2cp7thA27h2vish","standard","2","88","LP","0.661783713916415","546.14","546.804","547.426","1.286","0.622","3","360",NA
"160","R_2cp7thA27h2vish","standard","2","89","LP","3.49090909090909","548.428","551.919","552.517","4.089","0.598","3","363",NA
"161","R_2cp7thA27h2vish","standard","2","90","LP","1.25738905644119","553.519","554.779","555.371","1.852","0.592","3","366",NA
"162","R_2cp7thA27h2vish","standard","2","91","LP","3.49090909090909","556.372","559.869","560.473","4.101","0.604","3","369",NA
"163","R_2cp7thA27h2vish","standard","2","92","LP","2.15079707022835","561.475","563.627","564.204","2.729","0.577","3","372",NA
"164","R_2cp7thA27h2vish","standard","2","93","LP","3.49090909090909","565.206","568.699","569.361","4.155","0.662","3","375",NA
"165","R_2cp7thA27h2vish","standard","2","94","LP","5.5010771219302","570.363","575.889","576.519","6.156","0.63","3","378",NA
"166","R_2cp7thA27h2vish","standard","2","95","LP","8.51632916846187","577.52","NaN","585.399","7.879","NaN","0","378",NA
"167","R_2cp7thA27h2vish","standard","2","96","LP","8.51632916846187","586.404","NaN","592.49","6.086","NaN","0","378",NA
"168","R_2cp7thA27h2vish","standard","2","97","LP","5.5010771219302","593.495","599.003","599.66","6.165","0.657","3","381",NA
