"","subject_id","condition","n_block","n_trialIdx","f_timing_condition","n_scheduled_delay","n_trial_start_time","n_rewarded_time_fin","n_sell_time_fin","n_time_waited_fin","RT_fin","n_trial_earnings_fin","n_total_earnings_fin","keypress_times"
"1","R_2D8h2RTudkW1Iul","standard","1","1","LP","2.15079707022835","0.001","2.159","2.522","2.521","0.363","3","3",""
"2","R_2D8h2RTudkW1Iul","standard","1","2","LP","5.5010771219302","3.533","9.044","9.365","5.832","0.321","3","6",""
"3","R_2D8h2RTudkW1Iul","standard","1","3","LP","3.49090909090909","10.378","13.885","14.353","3.975","0.468","3","9",""
"4","R_2D8h2RTudkW1Iul","standard","1","4","LP","8.51632916846187","15.359","23.879","24.185","8.826","0.306","3","12",""
"5","R_2D8h2RTudkW1Iul","standard","1","5","LP","8.51632916846187","25.198","33.716","34.043","8.845","0.327","3","15",""
"6","R_2D8h2RTudkW1Iul","standard","1","6","LP","8.51632916846187","35.055","43.584","43.912","8.857","0.328","3","18",""
"7","R_2D8h2RTudkW1Iul","standard","1","7","LP","13.0392072382594","44.923","57.971","58.296","13.373","0.325","3","21",""
"8","R_2D8h2RTudkW1Iul","standard","1","8","LP","2.15079707022835","59.312","61.481","NA","3.177","NA","0","21",""
"9","R_2D8h2RTudkW1Iul","standard","1","9","LP","5.5010771219302","63.496","69.014","69.194","5.698","0.18","3","24",""
"10","R_2D8h2RTudkW1Iul","standard","1","10","LP","0.264713485566566","70.207","70.49","71.094","0.887","0.604","3","27",""
"11","R_2D8h2RTudkW1Iul","standard","1","11","LP","19.8235243429556","72.109","91.937","92.253","20.144","0.316","3","27","4518"
"12","R_2D8h2RTudkW1Iul","standard","1","12","LP","5.5010771219302","93.264","98.773","99.092","5.828","0.319","3","30",""
"13","R_2D8h2RTudkW1Iul","standard","1","13","LP","30","100.096","130.103","130.523","30.427","0.42","3","33",""
"14","R_2D8h2RTudkW1Iul","standard","1","14","LP","30","131.528","161.535","161.871","30.343","0.336","3","36",""
"15","R_2D8h2RTudkW1Iul","standard","1","15","LP","2.15079707022835","162.877","165.031","165.617","2.74","0.586","3","39",""
"16","R_2D8h2RTudkW1Iul","standard","1","16","LP","30","166.623","196.635","196.971","30.348","0.336","3","42",""
"17","R_2D8h2RTudkW1Iul","standard","1","17","LP","8.51632916846187","197.975","206.496","206.831","8.856","0.335","3","45",""
"18","R_2D8h2RTudkW1Iul","standard","1","18","LP","1.25738905644119","207.838","209.103","209.74","1.902","0.637","3","48",""
"19","R_2D8h2RTudkW1Iul","standard","1","19","LP","1.25738905644119","210.742","212","212.336","1.594","0.336","3","51",""
"20","R_2D8h2RTudkW1Iul","standard","1","20","LP","3.49090909090909","213.343","216.848","217.183","3.84","0.335","3","54",""
"21","R_2D8h2RTudkW1Iul","standard","1","21","LP","13.0392072382594","218.192","231.234","231.593","13.401","0.359","3","57",""
"22","R_2D8h2RTudkW1Iul","standard","1","22","LP","3.49090909090909","232.601","236.101","236.457","3.856","0.356","3","60",""
"23","R_2D8h2RTudkW1Iul","standard","1","23","LP","1.25738905644119","237.463","238.728","239.118","1.655","0.39","3","63",""
"24","R_2D8h2RTudkW1Iul","standard","1","24","LP","1.25738905644119","240.13","241.405","241.719","1.589","0.314","3","66",""
"25","R_2D8h2RTudkW1Iul","standard","1","25","LP","5.5010771219302","242.733","248.239","248.581","5.848","0.342","3","69",""
"26","R_2D8h2RTudkW1Iul","standard","1","26","LP","2.15079707022835","249.584","251.744","252.054","2.47","0.31","3","72",""
"27","R_2D8h2RTudkW1Iul","standard","1","27","LP","1.25738905644119","253.063","254.323","254.66","1.597","0.337","3","75",""
"28","R_2D8h2RTudkW1Iul","standard","1","28","LP","3.49090909090909","255.67","259.182","259.472","3.802","0.29","3","78",""
"29","R_2D8h2RTudkW1Iul","standard","1","29","LP","1.25738905644119","260.489","261.765","262.121","1.632","0.356","3","81",""
"30","R_2D8h2RTudkW1Iul","standard","1","30","LP","13.0392072382594","263.131","276.187","276.642","13.511","0.455","3","84",""
"31","R_2D8h2RTudkW1Iul","standard","1","31","LP","19.8235243429556","277.645","297.471","297.812","20.167","0.341","3","87",""
"32","R_2D8h2RTudkW1Iul","standard","1","32","LP","0.264713485566566","298.823","299.104","299.561","0.738","0.457","3","90",""
"33","R_2D8h2RTudkW1Iul","standard","1","33","LP","0.264713485566566","300.582","300.855","301.218","0.636","0.363","3","93",""
"34","R_2D8h2RTudkW1Iul","standard","1","34","LP","0.264713485566566","302.221","302.487","302.851","0.63","0.364","3","96",""
"35","R_2D8h2RTudkW1Iul","standard","1","35","LP","1.25738905644119","303.859","305.118","305.466","1.607","0.348","3","99",""
"36","R_2D8h2RTudkW1Iul","standard","1","36","LP","1.25738905644119","306.475","307.741","308.059","1.584","0.318","3","102",""
"37","R_2D8h2RTudkW1Iul","standard","1","37","LP","5.5010771219302","309.063","314.572","314.939","5.876","0.367","3","105",""
"38","R_2D8h2RTudkW1Iul","standard","1","38","LP","19.8235243429556","315.943","335.775","336.055","20.112","0.28","3","108",""
"39","R_2D8h2RTudkW1Iul","standard","1","39","LP","0.661783713916415","337.063","337.724","338.101","1.038","0.377","3","111",""
"40","R_2D8h2RTudkW1Iul","standard","1","40","LP","2.15079707022835","339.111","341.263","341.669","2.558","0.406","3","111","289"
"41","R_2D8h2RTudkW1Iul","standard","1","41","LP","1.25738905644119","342.671","343.93","344.379","1.708","0.449","3","114",""
"42","R_2D8h2RTudkW1Iul","standard","1","42","LP","30","345.391","375.412","375.882","30.491","0.47","3","117",""
"43","R_2D8h2RTudkW1Iul","standard","1","43","LP","1.25738905644119","376.891","378.149","378.63","1.739","0.481","3","120",""
"44","R_2D8h2RTudkW1Iul","standard","1","44","LP","5.5010771219302","379.648","385.173","385.786","6.138","0.613","3","123",""
"45","R_2D8h2RTudkW1Iul","standard","1","45","LP","8.51632916846187","386.791","395.323","396.029","9.238","0.706","3","126",""
"46","R_2D8h2RTudkW1Iul","standard","1","46","LP","2.15079707022835","397.03","399.182","399.598","2.568","0.416","3","129",""
"47","R_2D8h2RTudkW1Iul","standard","1","47","LP","1.25738905644119","400.609","401.871","402.388","1.779","0.517","3","132",""
"48","R_2D8h2RTudkW1Iul","standard","1","48","LP","0.264713485566566","403.391","403.664","404.115","0.724","0.451","3","135",""
"49","R_2D8h2RTudkW1Iul","standard","1","49","LP","30","405.119","435.127","435.506","30.387","0.379","3","138",""
"50","R_2D8h2RTudkW1Iul","standard","1","50","LP","13.0392072382594","436.514","449.559","449.992","13.478","0.433","3","141",""
"51","R_2D8h2RTudkW1Iul","standard","1","51","LP","13.0392072382594","450.999","464.047","464.419","13.42","0.372","3","144",""
"52","R_2D8h2RTudkW1Iul","standard","1","52","LP","0.661783713916415","465.427","466.09","466.721","1.294","0.631","3","147",""
"53","R_2D8h2RTudkW1Iul","standard","1","53","LP","2.15079707022835","467.729","469.897","470.423","2.694","0.526","3","150",""
"54","R_2D8h2RTudkW1Iul","standard","1","54","LP","2.15079707022835","471.436","473.602","474.041","2.605","0.439","3","153",""
"55","R_2D8h2RTudkW1Iul","standard","1","55","LP","30","475.06","505.063","505.46","30.4","0.397","3","156",""
"56","R_2D8h2RTudkW1Iul","standard","1","56","LP","19.8235243429556","506.463","526.306","526.776","20.313","0.47","3","159",""
"57","R_2D8h2RTudkW1Iul","standard","1","57","LP","1.25738905644119","527.785","529.046","529.711","1.926","0.665","3","162",""
"58","R_2D8h2RTudkW1Iul","standard","1","58","LP","3.49090909090909","530.719","534.22","534.744","4.025","0.524","3","165",""
"59","R_2D8h2RTudkW1Iul","standard","1","59","LP","30","535.751","565.759","566.117","30.366","0.358","3","168",""
"60","R_2D8h2RTudkW1Iul","standard","1","60","LP","30","567.121","597.125","597.457","30.336","0.332","3","171",""
"61","R_2D8h2RTudkW1Iul","standard","1","61","LP","2.15079707022835","598.466","600.626","601.011","2.545","0.385","3","174",""
"62","R_2D8h2RTudkW1Iul","standard","1","62","LP","19.8235243429556","602.02","621.85","622.483","20.463","0.633","3","177",""
"63","R_2D8h2RTudkW1Iul","standard","1","63","LP","1.25738905644119","623.488","624.763","625.217","1.729","0.454","3","180",""
"64","R_2D8h2RTudkW1Iul","standard","1","64","LP","3.49090909090909","626.221","629.718","630.126","3.905","0.408","3","183",""
"65","R_2D8h2RTudkW1Iul","standard","1","65","LP","3.49090909090909","631.128","634.621","635.251","4.123","0.63","3","186",""
"66","R_2D8h2RTudkW1Iul","standard","1","66","LP","2.15079707022835","636.261","638.414","638.978","2.717","0.564","3","189",""
"67","R_2D8h2RTudkW1Iul","standard","1","67","LP","2.15079707022835","639.99","642.143","642.66","2.67","0.517","3","192",""
"68","R_2D8h2RTudkW1Iul","standard","1","68","LP","1.25738905644119","643.664","644.928","645.418","1.754","0.49","3","195",""
"69","R_2D8h2RTudkW1Iul","standard","1","69","LP","2.15079707022835","646.431","648.583","649.107","2.676","0.524","3","198",""
"70","R_2D8h2RTudkW1Iul","standard","1","70","LP","2.15079707022835","650.125","652.287","652.785","2.66","0.498","3","201",""
"71","R_2D8h2RTudkW1Iul","standard","1","71","LP","8.51632916846187","653.791","662.312","662.709","8.918","0.397","3","204",""
"72","R_2D8h2RTudkW1Iul","standard","1","72","LP","8.51632916846187","663.711","672.235","672.637","8.926","0.402","3","207",""
"73","R_2D8h2RTudkW1Iul","standard","1","73","LP","13.0392072382594","673.644","686.698","687.219","13.575","0.521","3","210",""
"74","R_2D8h2RTudkW1Iul","standard","1","74","LP","3.49090909090909","688.226","691.719","692.153","3.927","0.434","3","213",""
"75","R_2D8h2RTudkW1Iul","standard","1","75","LP","0.661783713916415","693.161","693.841","694.505","1.344","0.664","3","216",""
"76","R_2D8h2RTudkW1Iul","standard","1","76","LP","2.15079707022835","695.519","697.671","698.154","2.635","0.483","3","219",""
"77","R_2D8h2RTudkW1Iul","standard","1","77","LP","8.51632916846187","699.159","707.679","708.198","9.039","0.519","3","222",""
"78","R_2D8h2RTudkW1Iul","standard","1","78","LP","3.49090909090909","709.212","712.716","713.176","3.964","0.46","3","225",""
"79","R_2D8h2RTudkW1Iul","standard","1","79","LP","19.8235243429556","714.183","734.016","734.464","20.281","0.448","3","228",""
"80","R_2D8h2RTudkW1Iul","standard","1","80","LP","2.15079707022835","735.475","737.635","738.287","2.812","0.652","3","231",""
"81","R_2D8h2RTudkW1Iul","standard","1","81","LP","13.0392072382594","739.295","752.343","752.884","13.589","0.541","3","234",""
"82","R_2D8h2RTudkW1Iul","standard","1","82","LP","3.49090909090909","753.886","757.386","757.928","4.042","0.542","3","237",""
"83","R_2D8h2RTudkW1Iul","standard","1","83","LP","19.8235243429556","758.933","778.759","779.157","20.224","0.398","3","240",""
"84","R_2D8h2RTudkW1Iul","standard","1","84","LP","0.661783713916415","780.163","780.839","NA","1.684","NA","0","240",""
"85","R_2D8h2RTudkW1Iul","standard","1","85","LP","3.49090909090909","782.866","786.361","786.727","3.861","0.366","3","243",""
"86","R_2D8h2RTudkW1Iul","standard","1","86","LP","0.661783713916415","787.729","788.39","788.984","1.255","0.594","3","246",""
"87","R_2D8h2RTudkW1Iul","standard","1","87","LP","19.8235243429556","789.992","809.824","810.172","20.18","0.348","3","249",""
"88","R_2D8h2RTudkW1Iul","standard","1","88","LP","0.264713485566566","811.181","811.448","811.913","0.732","0.465","3","252",""
"89","R_2D8h2RTudkW1Iul","standard","1","89","LP","30","812.915","842.921","843.261","30.346","0.34","3","255",""
"90","R_2D8h2RTudkW1Iul","standard","1","90","LP","8.51632916846187","844.277","852.806","853.248","8.971","0.442","3","258",""
"91","R_2D8h2RTudkW1Iul","standard","1","91","LP","19.8235243429556","854.255","874.079","874.398","20.143","0.319","3","261",""
"92","R_2D8h2RTudkW1Iul","standard","2","1","LP","30","0","NaN","10.154","10.154","NaN","0","261",NA
"93","R_2D8h2RTudkW1Iul","standard","2","2","LP","19.8235243429556","11.16","NaN","26.66","15.5","NaN","0","261",NA
"94","R_2D8h2RTudkW1Iul","standard","2","3","LP","3.49090909090909","27.67","31.168","31.696","4.026","0.528","3","264",NA
"95","R_2D8h2RTudkW1Iul","standard","2","4","LP","0.264713485566566","32.71","32.976","33.519","0.809","0.543","3","267",NA
"96","R_2D8h2RTudkW1Iul","standard","2","5","LP","8.51632916846187","34.52","NaN","41.192","6.672","NaN","0","267",NA
"97","R_2D8h2RTudkW1Iul","standard","2","6","LP","19.8235243429556","42.199","NaN","48.272","6.073","NaN","0","267",NA
"98","R_2D8h2RTudkW1Iul","standard","2","7","LP","19.8235243429556","49.28","NaN","55.625","6.345","NaN","0","267",NA
"99","R_2D8h2RTudkW1Iul","standard","2","8","LP","8.51632916846187","56.631","NaN","62.71","6.079","NaN","0","267",NA
"100","R_2D8h2RTudkW1Iul","standard","2","9","LP","3.49090909090909","63.711","67.208","67.53","3.819","0.322","3","270",NA
"101","R_2D8h2RTudkW1Iul","standard","2","10","LP","0.661783713916415","68.536","69.206","69.781","1.245","0.575","3","273",NA
"102","R_2D8h2RTudkW1Iul","standard","2","11","LP","5.5010771219302","70.799","76.31","76.736","5.937","0.426","3","276",NA
"103","R_2D8h2RTudkW1Iul","standard","2","12","LP","30","77.744","NaN","84.544","6.8","NaN","0","276",NA
"104","R_2D8h2RTudkW1Iul","standard","2","13","LP","30","85.551","NaN","91.01","5.459","NaN","0","276",NA
"105","R_2D8h2RTudkW1Iul","standard","2","14","LP","0.661783713916415","92.021","92.697","93.107","1.086","0.41","3","279",NA
"106","R_2D8h2RTudkW1Iul","standard","2","15","LP","0.661783713916415","94.119","94.786","95.159","1.04","0.373","3","282",NA
"107","R_2D8h2RTudkW1Iul","standard","2","16","LP","0.661783713916415","96.178","96.85","97.324","1.146","0.474","3","285",NA
"108","R_2D8h2RTudkW1Iul","standard","2","17","LP","30","98.33","NaN","104.787","6.457","NaN","0","285",NA
"109","R_2D8h2RTudkW1Iul","standard","2","18","LP","13.0392072382594","105.792","NaN","110.984","5.192","NaN","0","285",NA
"110","R_2D8h2RTudkW1Iul","standard","2","19","LP","2.15079707022835","111.992","114.147","114.547","2.555","0.4","3","288",NA
"111","R_2D8h2RTudkW1Iul","standard","2","20","LP","0.661783713916415","115.566","116.245","116.732","1.166","0.487","3","291",NA
"112","R_2D8h2RTudkW1Iul","standard","2","21","LP","1.25738905644119","117.743","119.019","119.394","1.651","0.375","3","294",NA
"113","R_2D8h2RTudkW1Iul","standard","2","22","LP","13.0392072382594","120.406","NaN","126.242","5.836","NaN","0","294",NA
"114","R_2D8h2RTudkW1Iul","standard","2","23","LP","2.15079707022835","127.245","129.409","129.783","2.538","0.374","3","297",NA
"115","R_2D8h2RTudkW1Iul","standard","2","24","LP","0.264713485566566","130.798","131.064","131.496","0.698","0.432","3","300",NA
"116","R_2D8h2RTudkW1Iul","standard","2","25","LP","30","132.517","NaN","138.122","5.605","NaN","0","300",NA
"117","R_2D8h2RTudkW1Iul","standard","2","26","LP","0.661783713916415","139.131","139.793","140.253","1.122","0.46","3","303",NA
"118","R_2D8h2RTudkW1Iul","standard","2","27","LP","13.0392072382594","141.259","NaN","146.443","5.184","NaN","0","303",NA
"119","R_2D8h2RTudkW1Iul","standard","2","28","LP","2.15079707022835","147.449","149.622","150.03","2.581","0.408","3","306",NA
"120","R_2D8h2RTudkW1Iul","standard","2","29","LP","0.661783713916415","151.039","151.715","152.132","1.093","0.417","3","309",NA
"121","R_2D8h2RTudkW1Iul","standard","2","30","LP","19.8235243429556","153.136","NaN","158.67","5.534","NaN","0","309",NA
"122","R_2D8h2RTudkW1Iul","standard","2","31","LP","1.25738905644119","159.676","160.941","161.331","1.655","0.39","3","312",NA
"123","R_2D8h2RTudkW1Iul","standard","2","32","LP","19.8235243429556","162.337","NaN","167.998","5.661","NaN","0","312",NA
"124","R_2D8h2RTudkW1Iul","standard","2","33","LP","2.15079707022835","169","171.151","171.552","2.552","0.401","3","315",NA
"125","R_2D8h2RTudkW1Iul","standard","2","34","LP","5.5010771219302","172.557","178.065","178.196","5.639","0.131","3","318",NA
"126","R_2D8h2RTudkW1Iul","standard","2","35","LP","13.0392072382594","179.2","NaN","184.904","5.704","NaN","0","318",NA
"127","R_2D8h2RTudkW1Iul","standard","2","36","LP","8.51632916846187","185.906","NaN","190.852","4.946","NaN","0","318",NA
"128","R_2D8h2RTudkW1Iul","standard","2","37","LP","8.51632916846187","191.856","NaN","196.864","5.008","NaN","0","318",NA
"129","R_2D8h2RTudkW1Iul","standard","2","38","LP","19.8235243429556","197.872","NaN","203.539","5.667","NaN","0","318",NA
"130","R_2D8h2RTudkW1Iul","standard","2","39","LP","19.8235243429556","204.544","NaN","210.323","5.779","NaN","0","318",NA
"131","R_2D8h2RTudkW1Iul","standard","2","40","LP","5.5010771219302","211.329","216.834","217.255","5.926","0.421","3","321",NA
"132","R_2D8h2RTudkW1Iul","standard","2","41","LP","13.0392072382594","218.275","NaN","223.602","5.327","NaN","0","321",NA
"133","R_2D8h2RTudkW1Iul","standard","2","42","LP","19.8235243429556","224.609","NaN","233.18","8.571","NaN","0","321",NA
"134","R_2D8h2RTudkW1Iul","standard","2","43","LP","5.5010771219302","234.184","239.689","240.086","5.902","0.397","3","324",NA
"135","R_2D8h2RTudkW1Iul","standard","2","44","LP","0.661783713916415","241.097","241.76","242.206","1.109","0.446","3","327",NA
"136","R_2D8h2RTudkW1Iul","standard","2","45","LP","13.0392072382594","243.213","NaN","247.756","4.543","NaN","0","327",NA
"137","R_2D8h2RTudkW1Iul","standard","2","46","LP","30","248.76","NaN","255.519","6.759","NaN","0","327",NA
"138","R_2D8h2RTudkW1Iul","standard","2","47","LP","30","256.527","NaN","263.545","7.018","NaN","0","327",NA
"139","R_2D8h2RTudkW1Iul","standard","2","48","LP","5.5010771219302","264.552","270.06","270.494","5.942","0.434","3","330",NA
"140","R_2D8h2RTudkW1Iul","standard","2","49","LP","0.264713485566566","271.503","271.776","272.434","0.931","0.658","3","333",NA
"141","R_2D8h2RTudkW1Iul","standard","2","50","LP","3.49090909090909","273.441","276.935","277.433","3.992","0.498","3","336",NA
"142","R_2D8h2RTudkW1Iul","standard","2","51","LP","3.49090909090909","278.439","281.941","282.36","3.921","0.419","3","339",NA
"143","R_2D8h2RTudkW1Iul","standard","2","52","LP","1.25738905644119","283.369","284.641","285.507","2.138","0.866","3","342",NA
"144","R_2D8h2RTudkW1Iul","standard","2","53","LP","8.51632916846187","286.517","NaN","293.704","7.187","NaN","0","342",NA
"145","R_2D8h2RTudkW1Iul","standard","2","54","LP","30","294.709","NaN","300.416","5.707","NaN","0","342",NA
"146","R_2D8h2RTudkW1Iul","standard","2","55","LP","13.0392072382594","301.43","NaN","308.574","7.144","NaN","0","342",NA
"147","R_2D8h2RTudkW1Iul","standard","2","56","LP","3.49090909090909","309.576","313.072","313.471","3.895","0.399","3","345",NA
"148","R_2D8h2RTudkW1Iul","standard","2","57","LP","8.51632916846187","314.482","NaN","321.639","7.157","NaN","0","345",NA
"149","R_2D8h2RTudkW1Iul","standard","2","58","LP","3.49090909090909","322.65","326.143","326.538","3.888","0.395","3","348",NA
"150","R_2D8h2RTudkW1Iul","standard","2","59","LP","3.49090909090909","327.553","NaN","330.563","3.01","NaN","0","348",NA
"151","R_2D8h2RTudkW1Iul","standard","2","60","LP","30","331.568","NaN","335.272","3.704","NaN","0","348",NA
"152","R_2D8h2RTudkW1Iul","standard","2","61","LP","19.8235243429556","336.281","NaN","340.656","4.375","NaN","0","348",NA
"153","R_2D8h2RTudkW1Iul","standard","2","62","LP","3.49090909090909","341.675","345.168","345.477","3.802","0.309","3","351",NA
"154","R_2D8h2RTudkW1Iul","standard","2","63","LP","13.0392072382594","346.483","NaN","350.371","3.888","NaN","0","351",NA
"155","R_2D8h2RTudkW1Iul","standard","2","64","LP","2.15079707022835","351.376","353.528","353.864","2.488","0.336","3","354",NA
"156","R_2D8h2RTudkW1Iul","standard","2","65","LP","13.0392072382594","354.865","NaN","359.349","4.484","NaN","0","354",NA
"157","R_2D8h2RTudkW1Iul","standard","2","66","LP","5.5010771219302","360.352","NaN","364.758","4.406","NaN","0","354",NA
"158","R_2D8h2RTudkW1Iul","standard","2","67","LP","2.15079707022835","365.773","367.931","368.376","2.603","0.445","3","357",NA
"159","R_2D8h2RTudkW1Iul","standard","2","68","LP","0.264713485566566","369.385","369.667","370.224","0.839","0.557","3","360",NA
"160","R_2D8h2RTudkW1Iul","standard","2","69","LP","2.15079707022835","371.225","373.387","373.767","2.542","0.38","3","363",NA
"161","R_2D8h2RTudkW1Iul","standard","2","70","LP","3.49090909090909","374.776","NaN","378.03","3.254","NaN","0","363",NA
"162","R_2D8h2RTudkW1Iul","standard","2","71","LP","30","379.047","NaN","382.38","3.333","NaN","0","363",NA
"163","R_2D8h2RTudkW1Iul","standard","2","72","LP","5.5010771219302","383.384","NaN","386.719","3.335","NaN","0","363",NA
"164","R_2D8h2RTudkW1Iul","standard","2","73","LP","0.661783713916415","387.73","388.4","388.802","1.072","0.402","3","366",NA
"165","R_2D8h2RTudkW1Iul","standard","2","74","LP","8.51632916846187","389.813","NaN","392.924","3.111","NaN","0","366",NA
"166","R_2D8h2RTudkW1Iul","standard","2","75","LP","2.15079707022835","393.928","396.089","396.431","2.503","0.342","3","369",NA
"167","R_2D8h2RTudkW1Iul","standard","2","76","LP","1.25738905644119","397.44","398.705","399.028","1.588","0.323","3","372",NA
"168","R_2D8h2RTudkW1Iul","standard","2","77","LP","2.15079707022835","400.036","402.193","402.527","2.491","0.334","3","375",NA
"169","R_2D8h2RTudkW1Iul","standard","2","78","LP","13.0392072382594","403.543","NaN","407.803","4.26","NaN","0","375",NA
"170","R_2D8h2RTudkW1Iul","standard","2","79","LP","0.661783713916415","408.808","409.484","410.058","1.25","0.574","3","378",NA
"171","R_2D8h2RTudkW1Iul","standard","2","80","LP","2.15079707022835","411.078","413.24","413.62","2.542","0.38","3","381",NA
"172","R_2D8h2RTudkW1Iul","standard","2","81","LP","1.25738905644119","414.625","415.891","416.334","1.709","0.443","3","384",NA
"173","R_2D8h2RTudkW1Iul","standard","2","82","LP","2.15079707022835","417.341","419.504","419.803","2.462","0.299","3","387",NA
"174","R_2D8h2RTudkW1Iul","standard","2","83","LP","8.51632916846187","420.811","NaN","425.096","4.285","NaN","0","387",NA
"175","R_2D8h2RTudkW1Iul","standard","2","84","LP","5.5010771219302","426.118","NaN","429.842","3.724","NaN","0","387",NA
"176","R_2D8h2RTudkW1Iul","standard","2","85","LP","0.661783713916415","430.848","431.512","431.898","1.05","0.386","3","390",NA
"177","R_2D8h2RTudkW1Iul","standard","2","86","LP","5.5010771219302","432.904","NaN","436.948","4.044","NaN","0","390",NA
"178","R_2D8h2RTudkW1Iul","standard","2","87","LP","0.264713485566566","437.952","438.226","438.628","0.676","0.402","3","393",NA
"179","R_2D8h2RTudkW1Iul","standard","2","88","LP","3.49090909090909","439.639","443.138","443.529","3.89","0.391","3","396",NA
"180","R_2D8h2RTudkW1Iul","standard","2","89","LP","2.15079707022835","444.538","446.709","447.036","2.498","0.327","3","399",NA
"181","R_2D8h2RTudkW1Iul","standard","2","90","LP","30","448.038","NaN","452.175","4.137","NaN","0","399",NA
"182","R_2D8h2RTudkW1Iul","standard","2","91","LP","30","453.196","NaN","456.782","3.586","NaN","0","399",NA
"183","R_2D8h2RTudkW1Iul","standard","2","92","LP","3.49090909090909","457.797","NaN","461.054","3.257","NaN","0","399",NA
"184","R_2D8h2RTudkW1Iul","standard","2","93","LP","13.0392072382594","462.062","NaN","466.469","4.407","NaN","0","399",NA
"185","R_2D8h2RTudkW1Iul","standard","2","94","LP","30","467.472","NaN","471.758","4.286","NaN","0","399",NA
"186","R_2D8h2RTudkW1Iul","standard","2","95","LP","1.25738905644119","472.763","474.024","474.461","1.698","0.437","3","402",NA
"187","R_2D8h2RTudkW1Iul","standard","2","96","LP","1.25738905644119","475.464","476.734","477.178","1.714","0.444","3","405",NA
"188","R_2D8h2RTudkW1Iul","standard","2","97","LP","30","478.185","NaN","481.501","3.316","NaN","0","405",NA
"189","R_2D8h2RTudkW1Iul","standard","2","98","LP","2.15079707022835","482.522","484.693","485.095","2.573","0.402","3","408",NA
"190","R_2D8h2RTudkW1Iul","standard","2","99","LP","1.25738905644119","486.097","487.361","487.762","1.665","0.401","3","411",NA
"191","R_2D8h2RTudkW1Iul","standard","2","100","LP","2.15079707022835","488.783","490.936","491.435","2.652","0.499","3","414",NA
"192","R_2D8h2RTudkW1Iul","standard","2","101","LP","3.49090909090909","492.446","495.952","496.226","3.78","0.274","3","417",NA
"193","R_2D8h2RTudkW1Iul","standard","2","102","LP","1.25738905644119","497.247","498.508","498.913","1.666","0.405","3","420",NA
"194","R_2D8h2RTudkW1Iul","standard","2","103","LP","2.15079707022835","499.926","502.08","502.536","2.61","0.456","3","423",NA
"195","R_2D8h2RTudkW1Iul","standard","2","104","LP","1.25738905644119","503.549","504.809","505.168","1.619","0.359","3","426",NA
"196","R_2D8h2RTudkW1Iul","standard","2","105","LP","3.49090909090909","506.189","509.689","510.137","3.948","0.448","3","429",NA
"197","R_2D8h2RTudkW1Iul","standard","2","106","LP","3.49090909090909","511.146","514.646","514.927","3.781","0.281","3","432",NA
"198","R_2D8h2RTudkW1Iul","standard","2","107","LP","2.15079707022835","515.944","518.096","518.509","2.565","0.413","3","435",NA
"199","R_2D8h2RTudkW1Iul","standard","2","108","LP","30","519.513","NaN","523.37","3.857","NaN","0","435",NA
"200","R_2D8h2RTudkW1Iul","standard","2","109","LP","2.15079707022835","524.389","526.545","526.981","2.592","0.436","3","438",NA
"201","R_2D8h2RTudkW1Iul","standard","2","110","LP","19.8235243429556","527.984","NaN","531.792","3.808","NaN","0","438",NA
"202","R_2D8h2RTudkW1Iul","standard","2","111","LP","13.0392072382594","532.809","NaN","537.306","4.497","NaN","0","438",NA
"203","R_2D8h2RTudkW1Iul","standard","2","112","LP","8.51632916846187","538.308","NaN","542.96","4.652","NaN","0","438",NA
"204","R_2D8h2RTudkW1Iul","standard","2","113","LP","13.0392072382594","543.968","NaN","548.508","4.54","NaN","0","438",NA
"205","R_2D8h2RTudkW1Iul","standard","2","114","LP","13.0392072382594","549.509","NaN","554.282","4.773","NaN","0","438",NA
"206","R_2D8h2RTudkW1Iul","standard","2","115","LP","0.661783713916415","555.29","555.968","556.437","1.147","0.469","3","441",NA
"207","R_2D8h2RTudkW1Iul","standard","2","116","LP","0.264713485566566","557.44","557.705","558.114","0.674","0.409","3","444",NA
"208","R_2D8h2RTudkW1Iul","standard","2","117","LP","30","559.116","NaN","563.289","4.173","NaN","0","444",NA
"209","R_2D8h2RTudkW1Iul","standard","2","118","LP","5.5010771219302","564.296","NaN","569.321","5.025","NaN","0","444",NA
"210","R_2D8h2RTudkW1Iul","standard","2","119","LP","8.51632916846187","570.33","NaN","574.118","3.788","NaN","0","444",NA
"211","R_2D8h2RTudkW1Iul","standard","2","120","LP","19.8235243429556","575.129","NaN","579.189","4.06","NaN","0","444",NA
"212","R_2D8h2RTudkW1Iul","standard","2","121","LP","5.5010771219302","580.2","NaN","584.252","4.052","NaN","0","444",NA
"213","R_2D8h2RTudkW1Iul","standard","2","122","LP","8.51632916846187","585.252","NaN","589.427","4.175","NaN","0","444",NA
"214","R_2D8h2RTudkW1Iul","standard","2","123","LP","5.5010771219302","590.437","NaN","594.743","4.306","NaN","0","444",NA
"215","R_2D8h2RTudkW1Iul","standard","2","124","LP","5.5010771219302","595.753","NaN","600.001","4.248","NaN","0","444",NA
