"","subject_id","condition","n_block","n_trialIdx","f_timing_condition","n_scheduled_delay","n_trial_start_time","n_rewarded_time_fin","n_sell_time_fin","n_time_waited_fin","RT_fin","n_trial_earnings_fin","n_total_earnings_fin","keypress_times"
"1","R_2EsE9rF0VgWVJm3","standard","1","1","HP","18","0.002","18.01","18.647","18.645","0.637","3","3",""
"2","R_2EsE9rF0VgWVJm3","standard","1","2","HP","6","19.653","25.663","NA","7.027","NA","0","3",""
"3","R_2EsE9rF0VgWVJm3","standard","1","3","HP","16","27.694","43.707","44.34","16.646","0.633","3","6",""
"4","R_2EsE9rF0VgWVJm3","standard","1","4","HP","8","45.343","53.35","53.953","8.61","0.603","3","9",""
"5","R_2EsE9rF0VgWVJm3","standard","1","5","HP","8","54.959","62.976","63.69","8.731","0.714","3","12",""
"6","R_2EsE9rF0VgWVJm3","standard","1","6","HP","8","64.695","72.708","73.379","8.684","0.671","3","15",""
"7","R_2EsE9rF0VgWVJm3","standard","1","7","HP","14","74.392","88.408","89.029","14.637","0.621","3","18",""
"8","R_2EsE9rF0VgWVJm3","standard","1","8","HP","8","90.031","98.039","98.71","8.679","0.671","3","21",""
"9","R_2EsE9rF0VgWVJm3","standard","1","9","HP","8","99.725","107.727","108.375","8.65","0.648","3","24",""
"10","R_2EsE9rF0VgWVJm3","standard","1","10","HP","18","109.405","127.413","128.069","18.664","0.656","3","27",""
"11","R_2EsE9rF0VgWVJm3","standard","1","11","HP","20","129.085","149.105","149.793","20.708","0.688","3","30",""
"12","R_2EsE9rF0VgWVJm3","standard","1","12","HP","4","150.804","154.823","155.56","4.756","0.737","3","33",""
"13","R_2EsE9rF0VgWVJm3","standard","1","13","HP","8","156.573","164.589","165.288","8.715","0.699","3","36",""
"14","R_2EsE9rF0VgWVJm3","standard","1","14","HP","10","166.303","176.31","177","10.697","0.69","3","39",""
"15","R_2EsE9rF0VgWVJm3","standard","1","15","HP","4","178.008","182.033","182.788","4.78","0.755","3","42",""
"16","R_2EsE9rF0VgWVJm3","standard","1","16","HP","6","183.803","189.82","190.575","6.772","0.755","3","45",""
"17","R_2EsE9rF0VgWVJm3","standard","1","17","HP","4","191.582","195.582","196.239","4.657","0.657","3","48",""
"18","R_2EsE9rF0VgWVJm3","standard","1","18","HP","18","197.248","215.255","215.845","18.597","0.59","3","51",""
"19","R_2EsE9rF0VgWVJm3","standard","1","19","HP","14","216.868","230.886","231.757","14.889","0.871","3","54",""
"20","R_2EsE9rF0VgWVJm3","standard","1","20","HP","18","232.759","250.785","251.46","18.701","0.675","3","57",""
"21","R_2EsE9rF0VgWVJm3","standard","1","21","HP","16","252.463","268.484","269.399","16.936","0.915","3","60",""
"22","R_2EsE9rF0VgWVJm3","standard","1","22","HP","12","270.403","282.461","283.059","12.656","0.598","3","63",""
"23","R_2EsE9rF0VgWVJm3","standard","1","23","HP","8","284.064","292.084","292.761","8.697","0.677","3","66",""
"24","R_2EsE9rF0VgWVJm3","standard","1","24","HP","10","293.767","303.768","304.36","10.593","0.592","3","69",""
"25","R_2EsE9rF0VgWVJm3","standard","1","25","HP","2","305.368","307.376","308.161","2.793","0.785","3","72",""
"26","R_2EsE9rF0VgWVJm3","standard","1","26","HP","12","309.167","321.176","321.864","12.697","0.688","3","75",""
"27","R_2EsE9rF0VgWVJm3","standard","1","27","HP","20","322.872","342.88","343.53","20.658","0.65","3","78",""
"28","R_2EsE9rF0VgWVJm3","standard","1","28","HP","10","344.535","354.535","355.367","10.832","0.832","3","81",""
"29","R_2EsE9rF0VgWVJm3","standard","1","29","HP","12","356.39","368.396","369.082","12.692","0.686","3","84",""
"30","R_2EsE9rF0VgWVJm3","standard","1","30","HP","2","370.098","372.103","372.929","2.831","0.826","3","87",""
"31","R_2EsE9rF0VgWVJm3","standard","1","31","HP","18","373.932","391.936","392.67","18.738","0.734","3","90",""
"32","R_2EsE9rF0VgWVJm3","standard","1","32","HP","20","393.679","413.694","414.496","20.817","0.802","3","93",""
"33","R_2EsE9rF0VgWVJm3","standard","1","33","HP","4","415.513","419.513","420.227","4.714","0.714","3","96",""
"34","R_2EsE9rF0VgWVJm3","standard","1","34","HP","14","421.232","435.239","435.895","14.663","0.656","3","99",""
"35","R_2EsE9rF0VgWVJm3","standard","1","35","HP","20","436.896","456.915","457.654","20.758","0.739","3","102",""
"36","R_2EsE9rF0VgWVJm3","standard","1","36","HP","2","458.656","460.656","461.423","2.767","0.767","3","105",""
"37","R_2EsE9rF0VgWVJm3","standard","1","37","HP","16","462.424","478.428","479.092","16.668","0.664","3","108",""
"38","R_2EsE9rF0VgWVJm3","standard","1","38","HP","18","480.107","498.121","498.82","18.713","0.699","3","111",""
"39","R_2EsE9rF0VgWVJm3","standard","1","39","HP","8","499.825","507.826","508.549","8.724","0.723","3","114",""
"40","R_2EsE9rF0VgWVJm3","standard","1","40","HP","20","509.552","529.56","530.299","20.747","0.739","3","117",""
"41","R_2EsE9rF0VgWVJm3","standard","1","41","HP","4","531.341","535.343","536.139","4.798","0.796","3","120",""
"42","R_2EsE9rF0VgWVJm3","standard","1","42","HP","14","537.144","551.151","551.81","14.666","0.659","3","123",""
"43","R_2EsE9rF0VgWVJm3","standard","1","43","HP","10","552.811","562.823","563.555","10.744","0.732","3","126",""
"44","R_2EsE9rF0VgWVJm3","standard","1","44","HP","8","564.561","572.569","573.236","8.675","0.667","3","129",""
"45","R_2EsE9rF0VgWVJm3","standard","1","45","HP","14","574.241","588.249","589.123","14.882","0.874","3","132",""
"46","R_2EsE9rF0VgWVJm3","standard","1","46","HP","14","590.127","604.128","604.857","14.73","0.729","3","135",""
"47","R_2EsE9rF0VgWVJm3","standard","1","47","HP","8","605.862","613.865","614.55","8.688","0.685","3","138",""
"48","R_2EsE9rF0VgWVJm3","standard","1","48","HP","10","615.553","625.557","626.47","10.917","0.913","3","141",""
"49","R_2EsE9rF0VgWVJm3","standard","1","49","HP","10","627.472","637.473","638.14","10.668","0.667","3","144",""
"50","R_2EsE9rF0VgWVJm3","standard","1","50","HP","18","639.14","657.145","657.902","18.762","0.757","3","147",""
"51","R_2EsE9rF0VgWVJm3","standard","1","51","HP","18","658.904","676.92","677.681","18.777","0.761","3","150",""
"52","R_2EsE9rF0VgWVJm3","standard","1","52","HP","14","678.689","692.717","693.459","14.77","0.742","3","153",""
"53","R_2EsE9rF0VgWVJm3","standard","1","53","HP","12","694.464","706.469","707.386","12.922","0.917","3","156",""
"54","R_2EsE9rF0VgWVJm3","standard","1","54","HP","2","708.402","710.418","711.244","2.842","0.826","3","159",""
"55","R_2EsE9rF0VgWVJm3","standard","1","55","HP","6","712.248","718.255","718.978","6.73","0.723","3","162",""
"56","R_2EsE9rF0VgWVJm3","standard","1","56","HP","14","719.983","733.999","734.787","14.804","0.788","3","165",""
"57","R_2EsE9rF0VgWVJm3","standard","1","57","HP","20","735.801","755.809","756.482","20.681","0.673","3","168",""
"58","R_2EsE9rF0VgWVJm3","standard","1","58","HP","10","757.498","767.516","768.191","10.693","0.675","3","171",""
"59","R_2EsE9rF0VgWVJm3","standard","1","59","HP","12","769.201","781.215","781.932","12.731","0.717","3","174",""
"60","R_2EsE9rF0VgWVJm3","standard","1","60","HP","18","782.933","800.937","801.603","18.67","0.666","3","177",""
"61","R_2EsE9rF0VgWVJm3","standard","1","61","HP","6","802.612","808.618","809.433","6.821","0.815","3","180",""
"62","R_2EsE9rF0VgWVJm3","standard","1","62","HP","8","810.441","818.449","819.342","8.901","0.893","3","183",""
"63","R_2EsE9rF0VgWVJm3","standard","1","63","HP","10","820.345","830.353","831.12","10.775","0.767","3","186",""
"64","R_2EsE9rF0VgWVJm3","standard","1","64","HP","6","832.121","838.13","839.045","6.924","0.915","3","189",""
"65","R_2EsE9rF0VgWVJm3","standard","1","65","HP","18","840.048","858.057","858.671","18.623","0.614","3","192",""
"66","R_2EsE9rF0VgWVJm3","standard","1","66","HP","6","859.681","865.688","866.35","6.669","0.662","3","195",""
"67","R_2EsE9rF0VgWVJm3","standard","1","67","HP","8","867.351","875.363","876.061","8.71","0.698","3","198",""
"68","R_2EsE9rF0VgWVJm3","standard","1","68","HP","6","877.072","883.089","883.728","6.656","0.639","3","201",""
"69","R_2EsE9rF0VgWVJm3","standard","2","1","LP","19.8235243429556","0.001","NaN","1.625","1.624","NaN","0","204",NA
"70","R_2EsE9rF0VgWVJm3","standard","2","2","LP","1.25738905644119","2.63","3.905","4.187","1.557","0.282","3","207",NA
"71","R_2EsE9rF0VgWVJm3","standard","2","3","LP","5.5010771219302","5.212","NaN","6.741","1.529","NaN","0","207",NA
"72","R_2EsE9rF0VgWVJm3","standard","2","4","LP","5.5010771219302","7.756","NaN","10.521","2.765","NaN","0","207",NA
"73","R_2EsE9rF0VgWVJm3","standard","2","5","LP","8.51632916846187","11.524","NaN","13.896","2.372","NaN","0","207",NA
"74","R_2EsE9rF0VgWVJm3","standard","2","6","LP","0.661783713916415","14.901","15.588",NA,"1.719",NA,"0","207",NA
"75","R_2EsE9rF0VgWVJm3","standard","2","7","LP","19.8235243429556","17.621","NaN","18.473","0.852","NaN","0","207",NA
"76","R_2EsE9rF0VgWVJm3","standard","2","8","LP","19.8235243429556","19.505","NaN","20.321","0.816","NaN","0","207",NA
"77","R_2EsE9rF0VgWVJm3","standard","2","9","LP","13.0392072382594","21.324","NaN","22.086","0.762","NaN","0","207",NA
"78","R_2EsE9rF0VgWVJm3","standard","2","10","LP","0.661783713916415","23.104","23.789","24.134","1.03","0.345","3","210",NA
"79","R_2EsE9rF0VgWVJm3","standard","2","11","LP","13.0392072382594","25.155","NaN","25.905","0.75","NaN","0","210",NA
"80","R_2EsE9rF0VgWVJm3","standard","2","12","LP","2.15079707022835","26.906","NaN","27.673","0.767","NaN","0","210",NA
"81","R_2EsE9rF0VgWVJm3","standard","2","13","LP","5.5010771219302","28.685","NaN","29.514","0.829","NaN","0","210",NA
"82","R_2EsE9rF0VgWVJm3","standard","2","14","LP","30","30.537","NaN","31.171","0.634","NaN","0","210",NA
"83","R_2EsE9rF0VgWVJm3","standard","2","15","LP","19.8235243429556","32.186","NaN","33","0.814","NaN","0","210",NA
"84","R_2EsE9rF0VgWVJm3","standard","2","16","LP","3.49090909090909","34.008","NaN","34.555","0.547","NaN","0","210",NA
"85","R_2EsE9rF0VgWVJm3","standard","2","17","LP","19.8235243429556","35.558","NaN","36.095","0.537","NaN","0","210",NA
"86","R_2EsE9rF0VgWVJm3","standard","2","18","LP","30","37.11","NaN","38.085","0.975","NaN","0","210",NA
"87","R_2EsE9rF0VgWVJm3","standard","2","19","LP","3.49090909090909","39.093","NaN","40.462","1.369","NaN","0","210",NA
"88","R_2EsE9rF0VgWVJm3","standard","2","20","LP","3.49090909090909","41.5","NaN","42.136","0.636","NaN","0","210",NA
"89","R_2EsE9rF0VgWVJm3","standard","2","21","LP","5.5010771219302","43.142","NaN","43.987","0.845","NaN","0","210",NA
"90","R_2EsE9rF0VgWVJm3","standard","2","22","LP","13.0392072382594","45.002","NaN","45.705","0.703","NaN","0","210",NA
"91","R_2EsE9rF0VgWVJm3","standard","2","23","LP","0.661783713916415","46.705","47.385","47.439","0.734","0.054","3","213",NA
"92","R_2EsE9rF0VgWVJm3","standard","2","24","LP","5.5010771219302","48.446","NaN","49.031","0.585","NaN","0","213",NA
"93","R_2EsE9rF0VgWVJm3","standard","2","25","LP","8.51632916846187","50.037","NaN","50.566","0.529","NaN","0","213",NA
"94","R_2EsE9rF0VgWVJm3","standard","2","26","LP","13.0392072382594","51.618","NaN","52.551","0.933","NaN","0","213",NA
"95","R_2EsE9rF0VgWVJm3","standard","2","27","LP","0.264713485566566","53.57","53.838","54.145","0.575","0.307","3","216",NA
"96","R_2EsE9rF0VgWVJm3","standard","2","28","LP","0.264713485566566","55.15","55.416","55.871","0.721","0.455","3","219",NA
"97","R_2EsE9rF0VgWVJm3","standard","2","29","LP","1.25738905644119","56.886","NaN","57.394","0.508","NaN","0","219",NA
"98","R_2EsE9rF0VgWVJm3","standard","2","30","LP","8.51632916846187","58.404","NaN","58.662","0.258","NaN","0","219",NA
"99","R_2EsE9rF0VgWVJm3","standard","2","31","LP","0.661783713916415","59.67","NaN","59.769","0.099","NaN","0","219",NA
"100","R_2EsE9rF0VgWVJm3","standard","2","32","LP","5.5010771219302","60.79","NaN","60.856","0.066","NaN","0","219",NA
"101","R_2EsE9rF0VgWVJm3","standard","2","33","LP","5.5010771219302","61.863","NaN","61.939","0.076","NaN","0","219",NA
"102","R_2EsE9rF0VgWVJm3","standard","2","34","LP","30","62.943","NaN","63.84","0.897","NaN","0","219",NA
"103","R_2EsE9rF0VgWVJm3","standard","2","35","LP","30","64.847","NaN","65.229","0.382","NaN","0","219",NA
"104","R_2EsE9rF0VgWVJm3","standard","2","36","LP","19.8235243429556","66.231","NaN","66.285","0.054","NaN","0","219",NA
"105","R_2EsE9rF0VgWVJm3","standard","2","37","LP","3.49090909090909","67.303","NaN","68.157","0.854","NaN","0","219",NA
"106","R_2EsE9rF0VgWVJm3","standard","2","38","LP","2.15079707022835","69.176","NaN","69.26","0.084","NaN","0","219",NA
"107","R_2EsE9rF0VgWVJm3","standard","2","39","LP","13.0392072382594","70.263","NaN","70.307","0.044","NaN","0","219",NA
"108","R_2EsE9rF0VgWVJm3","standard","2","40","LP","3.49090909090909","71.31","NaN","72.036","0.726","NaN","0","219",NA
"109","R_2EsE9rF0VgWVJm3","standard","2","41","LP","3.49090909090909","73.038","NaN","73.637","0.599","NaN","0","219",NA
"110","R_2EsE9rF0VgWVJm3","standard","2","42","LP","30","74.639","NaN","74.665","0.026","NaN","0","219",NA
"111","R_2EsE9rF0VgWVJm3","standard","2","43","LP","30","75.671","NaN","76.227","0.556","NaN","0","219",NA
"112","R_2EsE9rF0VgWVJm3","standard","2","44","LP","1.25738905644119","77.231","NaN","77.872","0.641","NaN","0","219",NA
"113","R_2EsE9rF0VgWVJm3","standard","2","45","LP","8.51632916846187","78.894","NaN","79.477","0.583","NaN","0","219",NA
"114","R_2EsE9rF0VgWVJm3","standard","2","46","LP","2.15079707022835","80.486","NaN","81.276","0.79","NaN","0","219",NA
"115","R_2EsE9rF0VgWVJm3","standard","2","47","LP","5.5010771219302","82.286","NaN","82.552","0.266","NaN","0","219",NA
"116","R_2EsE9rF0VgWVJm3","standard","2","48","LP","19.8235243429556","83.558","NaN","84.076","0.518","NaN","0","219",NA
"117","R_2EsE9rF0VgWVJm3","standard","2","49","LP","0.661783713916415","85.086","NaN","85.626","0.54","NaN","0","219",NA
"118","R_2EsE9rF0VgWVJm3","standard","2","50","LP","19.8235243429556","86.63","NaN","86.685","0.055","NaN","0","219",NA
"119","R_2EsE9rF0VgWVJm3","standard","2","51","LP","0.264713485566566","87.687","87.964","88.245","0.558","0.281","3","222",NA
"120","R_2EsE9rF0VgWVJm3","standard","2","52","LP","5.5010771219302","89.247","NaN","89.376","0.129","NaN","0","222",NA
"121","R_2EsE9rF0VgWVJm3","standard","2","53","LP","3.49090909090909","90.385","NaN","90.872","0.487","NaN","0","222",NA
"122","R_2EsE9rF0VgWVJm3","standard","2","54","LP","0.264713485566566","91.886","92.159","92.461","0.575","0.302","3","225",NA
"123","R_2EsE9rF0VgWVJm3","standard","2","55","LP","13.0392072382594","93.463","NaN","94.036","0.573","NaN","0","225",NA
"124","R_2EsE9rF0VgWVJm3","standard","2","56","LP","5.5010771219302","95.039","NaN","95.439","0.4","NaN","0","225",NA
"125","R_2EsE9rF0VgWVJm3","standard","2","57","LP","0.661783713916415","96.448","NaN","97.08","0.632","NaN","0","225",NA
"126","R_2EsE9rF0VgWVJm3","standard","2","58","LP","3.49090909090909","98.086","NaN","98.837","0.751","NaN","0","225",NA
"127","R_2EsE9rF0VgWVJm3","standard","2","59","LP","30","99.837","NaN","100.293","0.456","NaN","0","225",NA
"128","R_2EsE9rF0VgWVJm3","standard","2","60","LP","5.5010771219302","101.343","NaN","101.836","0.493","NaN","0","225",NA
"129","R_2EsE9rF0VgWVJm3","standard","2","61","LP","0.264713485566566","102.838","103.104","103.418","0.58","0.314","3","228",NA
"130","R_2EsE9rF0VgWVJm3","standard","2","62","LP","8.51632916846187","104.42","NaN","104.875","0.455","NaN","0","228",NA
"131","R_2EsE9rF0VgWVJm3","standard","2","63","LP","8.51632916846187","105.879","NaN","106.456","0.577","NaN","0","228",NA
"132","R_2EsE9rF0VgWVJm3","standard","2","64","LP","8.51632916846187","107.463","NaN","107.536","0.073","NaN","0","228",NA
"133","R_2EsE9rF0VgWVJm3","standard","2","65","LP","0.661783713916415","108.537","NaN","109.077","0.54","NaN","0","228",NA
"134","R_2EsE9rF0VgWVJm3","standard","2","66","LP","30","110.079","NaN","110.11","0.031","NaN","0","228",NA
"135","R_2EsE9rF0VgWVJm3","standard","2","67","LP","8.51632916846187","111.119","NaN","111.586","0.467","NaN","0","228",NA
"136","R_2EsE9rF0VgWVJm3","standard","2","68","LP","0.661783713916415","112.604","NaN","112.997","0.393","NaN","0","228",NA
"137","R_2EsE9rF0VgWVJm3","standard","2","69","LP","0.661783713916415","114.002","NaN","114.33","0.328","NaN","0","228",NA
"138","R_2EsE9rF0VgWVJm3","standard","2","70","LP","0.264713485566566","115.334","NaN","115.517","0.183","NaN","0","228",NA
"139","R_2EsE9rF0VgWVJm3","standard","2","71","LP","0.264713485566566","116.518","NaN","116.646","0.128","NaN","0","228",NA
"140","R_2EsE9rF0VgWVJm3","standard","2","72","LP","0.264713485566566","117.647","117.918","118.085","0.438","0.167","3","231",NA
"141","R_2EsE9rF0VgWVJm3","standard","2","73","LP","13.0392072382594","119.087","NaN","119.237","0.15","NaN","0","231",NA
"142","R_2EsE9rF0VgWVJm3","standard","2","74","LP","3.49090909090909","120.238","NaN","120.253","0.015","NaN","0","231",NA
"143","R_2EsE9rF0VgWVJm3","standard","2","75","LP","2.15079707022835","121.269","NaN","121.599","0.33","NaN","0","231",NA
"144","R_2EsE9rF0VgWVJm3","standard","2","76","LP","1.25738905644119","122.616","NaN","122.735","0.119","NaN","0","231",NA
"145","R_2EsE9rF0VgWVJm3","standard","2","77","LP","2.15079707022835","123.736","NaN","123.901","0.165","NaN","0","231",NA
"146","R_2EsE9rF0VgWVJm3","standard","2","78","LP","30","124.918","NaN","125.025","0.107","NaN","0","231",NA
"147","R_2EsE9rF0VgWVJm3","standard","2","79","LP","2.15079707022835","126.031","NaN","126.228","0.197","NaN","0","231",NA
"148","R_2EsE9rF0VgWVJm3","standard","2","80","LP","8.51632916846187","127.23","NaN","127.467","0.237","NaN","0","231",NA
"149","R_2EsE9rF0VgWVJm3","standard","2","81","LP","0.264713485566566","128.483","NaN","128.724","0.241","NaN","0","231",NA
"150","R_2EsE9rF0VgWVJm3","standard","2","82","LP","13.0392072382594","129.726","NaN","129.985","0.259","NaN","0","231",NA
"151","R_2EsE9rF0VgWVJm3","standard","2","83","LP","2.15079707022835","130.999","NaN","131.383","0.384","NaN","0","231",NA
"152","R_2EsE9rF0VgWVJm3","standard","2","84","LP","0.264713485566566","132.397","NaN","132.483","0.086","NaN","0","231",NA
"153","R_2EsE9rF0VgWVJm3","standard","2","85","LP","0.264713485566566","133.499","NaN","133.547","0.048","NaN","0","231",NA
"154","R_2EsE9rF0VgWVJm3","standard","2","86","LP","30","134.55","NaN","134.745","0.195","NaN","0","231",NA
"155","R_2EsE9rF0VgWVJm3","standard","2","87","LP","5.5010771219302","135.75","NaN","137.288","1.538","NaN","0","231",NA
"156","R_2EsE9rF0VgWVJm3","standard","2","88","LP","1.25738905644119","138.294","NaN","138.8","0.506","NaN","0","231",NA
"157","R_2EsE9rF0VgWVJm3","standard","2","89","LP","2.15079707022835","139.815","NaN","140.172","0.357","NaN","0","231",NA
"158","R_2EsE9rF0VgWVJm3","standard","2","90","LP","0.264713485566566","141.173","NaN","141.316","0.143","NaN","0","231",NA
"159","R_2EsE9rF0VgWVJm3","standard","2","91","LP","0.264713485566566","142.318","142.6","142.637","0.319","0.037","3","234",NA
"160","R_2EsE9rF0VgWVJm3","standard","2","92","LP","13.0392072382594","143.637","NaN","143.901","0.264","NaN","0","234",NA
"161","R_2EsE9rF0VgWVJm3","standard","2","93","LP","0.661783713916415","144.915","NaN","144.923","0.008","NaN","0","234",NA
"162","R_2EsE9rF0VgWVJm3","standard","2","94","LP","1.25738905644119","145.926","NaN","146.118","0.192","NaN","0","234",NA
"163","R_2EsE9rF0VgWVJm3","standard","2","95","LP","2.15079707022835","147.118","NaN","147.125","0.007","NaN","0","234",NA
"164","R_2EsE9rF0VgWVJm3","standard","2","96","LP","3.49090909090909","148.126","NaN","148.245","0.119","NaN","0","234",NA
"165","R_2EsE9rF0VgWVJm3","standard","2","97","LP","13.0392072382594","149.254","NaN","149.26","0.006","NaN","0","234",NA
"166","R_2EsE9rF0VgWVJm3","standard","2","98","LP","2.15079707022835","150.261","NaN","150.402","0.141","NaN","0","234",NA
"167","R_2EsE9rF0VgWVJm3","standard","2","99","LP","0.264713485566566","151.42","NaN","151.484","0.064","NaN","0","234",NA
"168","R_2EsE9rF0VgWVJm3","standard","2","100","LP","0.264713485566566","152.493","NaN","152.568","0.075","NaN","0","234",NA
"169","R_2EsE9rF0VgWVJm3","standard","2","101","LP","8.51632916846187","153.583","NaN","153.649","0.066","NaN","0","234",NA
"170","R_2EsE9rF0VgWVJm3","standard","2","102","LP","3.49090909090909","154.651","NaN","155.621","0.97","NaN","0","234",NA
"171","R_2EsE9rF0VgWVJm3","standard","2","103","LP","5.5010771219302","156.621","NaN","158.046","1.425","NaN","0","234",NA
"172","R_2EsE9rF0VgWVJm3","standard","2","104","LP","30","159.054","NaN","159.375","0.321","NaN","0","234",NA
"173","R_2EsE9rF0VgWVJm3","standard","2","105","LP","30","160.381","NaN","160.585","0.204","NaN","0","234",NA
"174","R_2EsE9rF0VgWVJm3","standard","2","106","LP","2.15079707022835","161.602","NaN","162.701","1.099","NaN","0","234",NA
"175","R_2EsE9rF0VgWVJm3","standard","2","107","LP","2.15079707022835","163.714","NaN","164.742","1.028","NaN","0","234",NA
"176","R_2EsE9rF0VgWVJm3","standard","2","108","LP","19.8235243429556","165.75","NaN","166.836","1.086","NaN","0","234",NA
"177","R_2EsE9rF0VgWVJm3","standard","2","109","LP","5.5010771219302","167.838","NaN","168.367","0.529","NaN","0","234",NA
"178","R_2EsE9rF0VgWVJm3","standard","2","110","LP","3.49090909090909","169.385","NaN","170.047","0.662","NaN","0","234",NA
"179","R_2EsE9rF0VgWVJm3","standard","2","111","LP","0.661783713916415","171.065","NaN","171.636","0.571","NaN","0","234",NA
"180","R_2EsE9rF0VgWVJm3","standard","2","112","LP","13.0392072382594","172.638","NaN","173.837","1.199","NaN","0","234",NA
"181","R_2EsE9rF0VgWVJm3","standard","2","113","LP","0.264713485566566","174.846","175.114","176.017","1.171","0.903","3","237",NA
"182","R_2EsE9rF0VgWVJm3","standard","2","114","LP","3.49090909090909","177.018","NaN","177.985","0.967","NaN","0","237",NA
"183","R_2EsE9rF0VgWVJm3","standard","2","115","LP","1.25738905644119","178.998","NaN","180.067","1.069","NaN","0","237",NA
"184","R_2EsE9rF0VgWVJm3","standard","2","116","LP","13.0392072382594","181.081","NaN","182.145","1.064","NaN","0","237",NA
"185","R_2EsE9rF0VgWVJm3","standard","2","117","LP","13.0392072382594","183.15","NaN","184.095","0.945","NaN","0","237",NA
"186","R_2EsE9rF0VgWVJm3","standard","2","118","LP","13.0392072382594","185.117","NaN","185.806","0.689","NaN","0","237",NA
"187","R_2EsE9rF0VgWVJm3","standard","2","119","LP","8.51632916846187","186.813","NaN","187.215","0.402","NaN","0","237",NA
"188","R_2EsE9rF0VgWVJm3","standard","2","120","LP","19.8235243429556","188.217","NaN","188.839","0.622","NaN","0","237",NA
"189","R_2EsE9rF0VgWVJm3","standard","2","121","LP","0.661783713916415","189.932","190.604","190.649","0.717","0.045","3","240",NA
"190","R_2EsE9rF0VgWVJm3","standard","2","122","LP","5.5010771219302","191.662","NaN","191.977","0.315","NaN","0","240",NA
"191","R_2EsE9rF0VgWVJm3","standard","2","123","LP","19.8235243429556","192.982","NaN","193.349","0.367","NaN","0","240",NA
"192","R_2EsE9rF0VgWVJm3","standard","2","124","LP","19.8235243429556","194.358","NaN","194.835","0.477","NaN","0","240",NA
"193","R_2EsE9rF0VgWVJm3","standard","2","125","LP","3.49090909090909","195.838","NaN","196.314","0.476","NaN","0","240",NA
"194","R_2EsE9rF0VgWVJm3","standard","2","126","LP","3.49090909090909","197.315","NaN","197.731","0.416","NaN","0","240",NA
"195","R_2EsE9rF0VgWVJm3","standard","2","127","LP","13.0392072382594","198.734","NaN","199.197","0.463","NaN","0","240",NA
"196","R_2EsE9rF0VgWVJm3","standard","2","128","LP","30","200.213","NaN","200.821","0.608","NaN","0","240",NA
"197","R_2EsE9rF0VgWVJm3","standard","2","129","LP","8.51632916846187","201.829","NaN","202.318","0.489","NaN","0","240",NA
"198","R_2EsE9rF0VgWVJm3","standard","2","130","LP","8.51632916846187","203.326","NaN","203.884","0.558","NaN","0","240",NA
"199","R_2EsE9rF0VgWVJm3","standard","2","131","LP","19.8235243429556","204.897","NaN","205.265","0.368","NaN","0","240",NA
"200","R_2EsE9rF0VgWVJm3","standard","2","132","LP","8.51632916846187","206.28","NaN","206.938","0.658","NaN","0","240",NA
"201","R_2EsE9rF0VgWVJm3","standard","2","133","LP","19.8235243429556","207.941","NaN","208.764","0.823","NaN","0","240",NA
"202","R_2EsE9rF0VgWVJm3","standard","2","134","LP","19.8235243429556","209.78","NaN","210.735","0.955","NaN","0","240",NA
"203","R_2EsE9rF0VgWVJm3","standard","2","135","LP","13.0392072382594","211.811","NaN","212.173","0.362","NaN","0","240",NA
"204","R_2EsE9rF0VgWVJm3","standard","2","136","LP","1.25738905644119","213.182","NaN","213.714","0.532","NaN","0","240",NA
"205","R_2EsE9rF0VgWVJm3","standard","2","137","LP","5.5010771219302","214.715","NaN","215.281","0.566","NaN","0","240",NA
"206","R_2EsE9rF0VgWVJm3","standard","2","138","LP","19.8235243429556","216.356","NaN","216.734","0.378","NaN","0","240",NA
"207","R_2EsE9rF0VgWVJm3","standard","2","139","LP","0.661783713916415","217.741","NaN","218.115","0.374","NaN","0","240",NA
"208","R_2EsE9rF0VgWVJm3","standard","2","140","LP","3.49090909090909","219.118","NaN","219.525","0.407","NaN","0","240",NA
"209","R_2EsE9rF0VgWVJm3","standard","2","141","LP","0.264713485566566","220.533","NaN","220.705","0.172","NaN","0","240",NA
"210","R_2EsE9rF0VgWVJm3","standard","2","142","LP","19.8235243429556","221.712","NaN","221.959","0.247","NaN","0","240",NA
"211","R_2EsE9rF0VgWVJm3","standard","2","143","LP","0.264713485566566","222.965","NaN","223.126","0.161","NaN","0","240",NA
"212","R_2EsE9rF0VgWVJm3","standard","2","144","LP","5.5010771219302","224.133","NaN","224.506","0.373","NaN","0","240",NA
"213","R_2EsE9rF0VgWVJm3","standard","2","145","LP","8.51632916846187","225.512","NaN","225.636","0.124","NaN","0","240",NA
"214","R_2EsE9rF0VgWVJm3","standard","2","146","LP","0.264713485566566","226.637","NaN","226.814","0.177","NaN","0","240",NA
"215","R_2EsE9rF0VgWVJm3","standard","2","147","LP","30","227.815","NaN","228.086","0.271","NaN","0","240",NA
"216","R_2EsE9rF0VgWVJm3","standard","2","148","LP","30","229.095","NaN","229.244","0.149","NaN","0","240",NA
"217","R_2EsE9rF0VgWVJm3","standard","2","149","LP","0.661783713916415","230.265","NaN","230.384","0.119","NaN","0","240",NA
"218","R_2EsE9rF0VgWVJm3","standard","2","150","LP","1.25738905644119","231.395","NaN","231.491","0.096","NaN","0","240",NA
"219","R_2EsE9rF0VgWVJm3","standard","2","151","LP","2.15079707022835","232.496","NaN","232.585","0.089","NaN","0","240",NA
"220","R_2EsE9rF0VgWVJm3","standard","2","152","LP","13.0392072382594","233.603","NaN","234.611","1.008","NaN","0","240",NA
"221","R_2EsE9rF0VgWVJm3","standard","2","153","LP","8.51632916846187","235.618","NaN","235.915","0.297","NaN","0","240",NA
"222","R_2EsE9rF0VgWVJm3","standard","2","154","LP","3.49090909090909","236.915","NaN","237.008","0.093","NaN","0","240",NA
"223","R_2EsE9rF0VgWVJm3","standard","2","155","LP","8.51632916846187","238.014","NaN","239.025","1.011","NaN","0","240",NA
"224","R_2EsE9rF0VgWVJm3","standard","2","156","LP","5.5010771219302","240.029","NaN","240.145","0.116","NaN","0","240",NA
"225","R_2EsE9rF0VgWVJm3","standard","2","157","LP","0.661783713916415","241.15","NaN","241.275","0.125","NaN","0","240",NA
"226","R_2EsE9rF0VgWVJm3","standard","2","158","LP","0.661783713916415","242.284","NaN","242.51","0.226","NaN","0","240",NA
"227","R_2EsE9rF0VgWVJm3","standard","2","159","LP","8.51632916846187","243.514","NaN","243.691","0.177","NaN","0","240",NA
"228","R_2EsE9rF0VgWVJm3","standard","2","160","LP","8.51632916846187","244.694","NaN","244.753","0.059","NaN","0","240",NA
"229","R_2EsE9rF0VgWVJm3","standard","2","161","LP","13.0392072382594","245.763","NaN","245.815","0.052","NaN","0","240",NA
"230","R_2EsE9rF0VgWVJm3","standard","2","162","LP","0.661783713916415","246.816","247.478","248.073","1.257","0.595","3","243",NA
"231","R_2EsE9rF0VgWVJm3","standard","2","163","LP","3.49090909090909","249.08","NaN","249.179","0.099","NaN","0","243",NA
"232","R_2EsE9rF0VgWVJm3","standard","2","164","LP","30","250.189","NaN","250.314","0.125","NaN","0","243",NA
"233","R_2EsE9rF0VgWVJm3","standard","2","165","LP","0.264713485566566","251.315","NaN","251.479","0.164","NaN","0","243",NA
"234","R_2EsE9rF0VgWVJm3","standard","2","166","LP","0.264713485566566","252.497","252.765","253.026","0.529","0.261","3","246",NA
"235","R_2EsE9rF0VgWVJm3","standard","2","167","LP","1.25738905644119","254.028","NaN","254.377","0.349","NaN","0","246",NA
"236","R_2EsE9rF0VgWVJm3","standard","2","168","LP","2.15079707022835","255.396","NaN","255.936","0.54","NaN","0","246",NA
"237","R_2EsE9rF0VgWVJm3","standard","2","169","LP","19.8235243429556","256.942","NaN","257.815","0.873","NaN","0","246",NA
"238","R_2EsE9rF0VgWVJm3","standard","2","170","LP","0.661783713916415","258.821","NaN","258.845","0.024","NaN","0","246",NA
"239","R_2EsE9rF0VgWVJm3","standard","2","171","LP","3.49090909090909","259.869","NaN","259.924","0.055","NaN","0","246",NA
"240","R_2EsE9rF0VgWVJm3","standard","2","172","LP","0.264713485566566","260.926","NaN","260.989","0.063","NaN","0","246",NA
"241","R_2EsE9rF0VgWVJm3","standard","2","173","LP","1.25738905644119","261.99","NaN","262.554","0.564","NaN","0","246",NA
"242","R_2EsE9rF0VgWVJm3","standard","2","174","LP","19.8235243429556","263.562","NaN","263.594","0.032","NaN","0","246",NA
"243","R_2EsE9rF0VgWVJm3","standard","2","175","LP","0.264713485566566","264.609","NaN","264.625","0.016","NaN","0","246",NA
"244","R_2EsE9rF0VgWVJm3","standard","2","176","LP","0.661783713916415","265.629","266.295","266.494","0.865","0.199","3","249",NA
"245","R_2EsE9rF0VgWVJm3","standard","2","177","LP","2.15079707022835","267.512","NaN","267.587","0.075","NaN","0","249",NA
"246","R_2EsE9rF0VgWVJm3","standard","2","178","LP","5.5010771219302","268.61","NaN","268.715","0.105","NaN","0","249",NA
"247","R_2EsE9rF0VgWVJm3","standard","2","179","LP","2.15079707022835","269.717","NaN","269.816","0.099","NaN","0","249",NA
"248","R_2EsE9rF0VgWVJm3","standard","2","180","LP","19.8235243429556","270.821","NaN","270.856","0.035","NaN","0","249",NA
"249","R_2EsE9rF0VgWVJm3","standard","2","181","LP","13.0392072382594","271.869","NaN","271.875","0.006","NaN","0","249",NA
"250","R_2EsE9rF0VgWVJm3","standard","2","182","LP","13.0392072382594","272.877","NaN","273.665","0.788","NaN","0","249",NA
"251","R_2EsE9rF0VgWVJm3","standard","2","183","LP","1.25738905644119","274.666","NaN","275.519","0.853","NaN","0","249",NA
"252","R_2EsE9rF0VgWVJm3","standard","2","184","LP","3.49090909090909","276.526","NaN","276.806","0.28","NaN","0","249",NA
"253","R_2EsE9rF0VgWVJm3","standard","2","185","LP","19.8235243429556","277.809","NaN","278.544","0.735","NaN","0","249",NA
"254","R_2EsE9rF0VgWVJm3","standard","2","186","LP","13.0392072382594","279.55","NaN","280.106","0.556","NaN","0","249",NA
"255","R_2EsE9rF0VgWVJm3","standard","2","187","LP","5.5010771219302","281.109","NaN","282.006","0.897","NaN","0","249",NA
"256","R_2EsE9rF0VgWVJm3","standard","2","188","LP","0.661783713916415","283.006","NaN","283.094","0.088","NaN","0","249",NA
"257","R_2EsE9rF0VgWVJm3","standard","2","189","LP","0.661783713916415","284.101","284.766","284.995","0.894","0.229","3","252",NA
"258","R_2EsE9rF0VgWVJm3","standard","2","190","LP","19.8235243429556","286.01","NaN","286.746","0.736","NaN","0","252",NA
"259","R_2EsE9rF0VgWVJm3","standard","2","191","LP","13.0392072382594","287.76","NaN","287.875","0.115","NaN","0","252",NA
"260","R_2EsE9rF0VgWVJm3","standard","2","192","LP","8.51632916846187","288.876","NaN","289.794","0.918","NaN","0","252",NA
"261","R_2EsE9rF0VgWVJm3","standard","2","193","LP","13.0392072382594","290.797","NaN","291.027","0.23","NaN","0","252",NA
"262","R_2EsE9rF0VgWVJm3","standard","2","194","LP","19.8235243429556","292.029","NaN","292.194","0.165","NaN","0","252",NA
"263","R_2EsE9rF0VgWVJm3","standard","2","195","LP","2.15079707022835","293.211","NaN","293.346","0.135","NaN","0","252",NA
"264","R_2EsE9rF0VgWVJm3","standard","2","196","LP","0.661783713916415","294.35","NaN","294.385","0.035","NaN","0","252",NA
"265","R_2EsE9rF0VgWVJm3","standard","2","197","LP","0.264713485566566","295.43","NaN","295.441","0.011","NaN","0","252",NA
"266","R_2EsE9rF0VgWVJm3","standard","2","198","LP","19.8235243429556","296.446","NaN","296.977","0.531","NaN","0","252",NA
"267","R_2EsE9rF0VgWVJm3","standard","2","199","LP","19.8235243429556","297.995","NaN","298.915","0.92","NaN","0","252",NA
"268","R_2EsE9rF0VgWVJm3","standard","2","200","LP","19.8235243429556","299.917","NaN","299.925","0.008","NaN","0","252",NA
"269","R_2EsE9rF0VgWVJm3","standard","2","201","LP","5.5010771219302","300.933","NaN","301.754","0.821","NaN","0","252",NA
"270","R_2EsE9rF0VgWVJm3","standard","2","202","LP","0.264713485566566","302.762","NaN","302.884","0.122","NaN","0","252",NA
"271","R_2EsE9rF0VgWVJm3","standard","2","203","LP","13.0392072382594","303.892","NaN","304.161","0.269","NaN","0","252",NA
"272","R_2EsE9rF0VgWVJm3","standard","2","204","LP","19.8235243429556","305.193","NaN","305.195","0.002","NaN","0","252",NA
"273","R_2EsE9rF0VgWVJm3","standard","2","205","LP","2.15079707022835","306.209","NaN","306.661","0.452","NaN","0","252",NA
"274","R_2EsE9rF0VgWVJm3","standard","2","206","LP","8.51632916846187","307.692","NaN","308.493","0.801","NaN","0","252",NA
"275","R_2EsE9rF0VgWVJm3","standard","2","207","LP","13.0392072382594","309.51","NaN","310.785","1.275","NaN","0","252",NA
"276","R_2EsE9rF0VgWVJm3","standard","2","208","LP","1.25738905644119","311.792","313.061","313.107","1.315","0.046","3","255",NA
"277","R_2EsE9rF0VgWVJm3","standard","2","209","LP","2.15079707022835","314.11","NaN","315.061","0.951","NaN","0","255",NA
"278","R_2EsE9rF0VgWVJm3","standard","2","210","LP","5.5010771219302","316.07","NaN","316.695","0.625","NaN","0","255",NA
"279","R_2EsE9rF0VgWVJm3","standard","2","211","LP","0.661783713916415","317.708","NaN","318.276","0.568","NaN","0","255",NA
"280","R_2EsE9rF0VgWVJm3","standard","2","212","LP","5.5010771219302","319.294","NaN","319.954","0.66","NaN","0","255",NA
"281","R_2EsE9rF0VgWVJm3","standard","2","213","LP","2.15079707022835","320.957","NaN","321.384","0.427","NaN","0","255",NA
"282","R_2EsE9rF0VgWVJm3","standard","2","214","LP","0.264713485566566","322.393","322.662","322.836","0.443","0.174","3","258",NA
"283","R_2EsE9rF0VgWVJm3","standard","2","215","LP","0.661783713916415","323.86","NaN","324.125","0.265","NaN","0","258",NA
"284","R_2EsE9rF0VgWVJm3","standard","2","216","LP","13.0392072382594","325.125","NaN","325.161","0.036","NaN","0","258",NA
"285","R_2EsE9rF0VgWVJm3","standard","2","217","LP","8.51632916846187","326.192","NaN","326.196","0.004","NaN","0","258",NA
"286","R_2EsE9rF0VgWVJm3","standard","2","218","LP","0.264713485566566","327.208","327.478","327.776","0.568","0.298","3","261",NA
"287","R_2EsE9rF0VgWVJm3","standard","2","219","LP","8.51632916846187","328.792","NaN","329.166","0.374","NaN","0","261",NA
"288","R_2EsE9rF0VgWVJm3","standard","2","220","LP","13.0392072382594","330.177","NaN","330.357","0.18","NaN","0","261",NA
"289","R_2EsE9rF0VgWVJm3","standard","2","221","LP","1.25738905644119","331.372","NaN","331.495","0.123","NaN","0","261",NA
"290","R_2EsE9rF0VgWVJm3","standard","2","222","LP","30","332.525","NaN","332.655","0.13","NaN","0","261",NA
"291","R_2EsE9rF0VgWVJm3","standard","2","223","LP","1.25738905644119","333.661","NaN","333.76","0.099","NaN","0","261",NA
"292","R_2EsE9rF0VgWVJm3","standard","2","224","LP","13.0392072382594","334.775","NaN","334.906","0.131","NaN","0","261",NA
"293","R_2EsE9rF0VgWVJm3","standard","2","225","LP","30","335.909","NaN","336.015","0.106","NaN","0","261",NA
"294","R_2EsE9rF0VgWVJm3","standard","2","226","LP","0.264713485566566","337.021","337.291","337.295","0.274","0.004","3","264",NA
"295","R_2EsE9rF0VgWVJm3","standard","2","227","LP","8.51632916846187","338.303","NaN","338.694","0.391","NaN","0","264",NA
"296","R_2EsE9rF0VgWVJm3","standard","2","228","LP","13.0392072382594","339.702","NaN","340.074","0.372","NaN","0","264",NA
"297","R_2EsE9rF0VgWVJm3","standard","2","229","LP","5.5010771219302","341.102","NaN","341.454","0.352","NaN","0","264",NA
"298","R_2EsE9rF0VgWVJm3","standard","2","230","LP","0.264713485566566","342.461","342.733","342.735","0.274","0.002","3","267",NA
"299","R_2EsE9rF0VgWVJm3","standard","2","231","LP","8.51632916846187","343.741","NaN","344.324","0.583","NaN","0","267",NA
"300","R_2EsE9rF0VgWVJm3","standard","2","232","LP","0.264713485566566","345.326","345.597","345.735","0.409","0.138","3","270",NA
"301","R_2EsE9rF0VgWVJm3","standard","2","233","LP","0.264713485566566","346.742","347.009","347.045","0.303","0.036","3","273",NA
"302","R_2EsE9rF0VgWVJm3","standard","2","234","LP","30","348.046","NaN","348.36","0.314","NaN","0","273",NA
"303","R_2EsE9rF0VgWVJm3","standard","2","235","LP","13.0392072382594","349.375","NaN","349.676","0.301","NaN","0","273",NA
"304","R_2EsE9rF0VgWVJm3","standard","2","236","LP","5.5010771219302","350.692","NaN","350.827","0.135","NaN","0","273",NA
"305","R_2EsE9rF0VgWVJm3","standard","2","237","LP","8.51632916846187","351.83","NaN","352.043","0.213","NaN","0","273",NA
"306","R_2EsE9rF0VgWVJm3","standard","2","238","LP","30","353.046","NaN","353.195","0.149","NaN","0","273",NA
"307","R_2EsE9rF0VgWVJm3","standard","2","239","LP","0.264713485566566","354.206","NaN","354.393","0.187","NaN","0","273",NA
"308","R_2EsE9rF0VgWVJm3","standard","2","240","LP","19.8235243429556","355.408","NaN","355.506","0.098","NaN","0","273",NA
"309","R_2EsE9rF0VgWVJm3","standard","2","241","LP","8.51632916846187","356.528","NaN","356.644","0.116","NaN","0","273",NA
"310","R_2EsE9rF0VgWVJm3","standard","2","242","LP","0.264713485566566","357.646","NaN","357.796","0.15","NaN","0","273",NA
"311","R_2EsE9rF0VgWVJm3","standard","2","243","LP","5.5010771219302","358.802","NaN","358.99","0.188","NaN","0","273",NA
"312","R_2EsE9rF0VgWVJm3","standard","2","244","LP","19.8235243429556","360.009","NaN","360.206","0.197","NaN","0","273",NA
"313","R_2EsE9rF0VgWVJm3","standard","2","245","LP","3.49090909090909","361.216","NaN","361.315","0.099","NaN","0","273",NA
"314","R_2EsE9rF0VgWVJm3","standard","2","246","LP","19.8235243429556","362.318","NaN","362.533","0.215","NaN","0","273",NA
"315","R_2EsE9rF0VgWVJm3","standard","2","247","LP","30","363.542","NaN","363.637","0.095","NaN","0","273",NA
"316","R_2EsE9rF0VgWVJm3","standard","2","248","LP","0.661783713916415","364.638","NaN","364.714","0.076","NaN","0","273",NA
"317","R_2EsE9rF0VgWVJm3","standard","2","249","LP","5.5010771219302","365.718","NaN","365.814","0.096","NaN","0","273",NA
"318","R_2EsE9rF0VgWVJm3","standard","2","250","LP","5.5010771219302","366.822","NaN","366.895","0.073","NaN","0","273",NA
"319","R_2EsE9rF0VgWVJm3","standard","2","251","LP","30","367.914","NaN","368.006","0.092","NaN","0","273",NA
"320","R_2EsE9rF0VgWVJm3","standard","2","252","LP","3.49090909090909","369.035","NaN","369.076","0.041","NaN","0","273",NA
"321","R_2EsE9rF0VgWVJm3","standard","2","253","LP","13.0392072382594","370.089","NaN","370.155","0.066","NaN","0","273",NA
"322","R_2EsE9rF0VgWVJm3","standard","2","254","LP","0.661783713916415","371.159","NaN","371.243","0.084","NaN","0","273",NA
"323","R_2EsE9rF0VgWVJm3","standard","2","255","LP","0.264713485566566","372.246","NaN","372.4","0.154","NaN","0","273",NA
"324","R_2EsE9rF0VgWVJm3","standard","2","256","LP","5.5010771219302","373.417","NaN","373.975","0.558","NaN","0","273",NA
"325","R_2EsE9rF0VgWVJm3","standard","2","257","LP","13.0392072382594","374.991","NaN","375.059","0.068","NaN","0","273",NA
"326","R_2EsE9rF0VgWVJm3","standard","2","258","LP","13.0392072382594","376.075","NaN","376.085","0.01","NaN","0","273",NA
"327","R_2EsE9rF0VgWVJm3","standard","2","259","LP","30","377.085","NaN","377.236","0.151","NaN","0","273",NA
"328","R_2EsE9rF0VgWVJm3","standard","2","260","LP","8.51632916846187","378.237","NaN","378.394","0.157","NaN","0","273",NA
"329","R_2EsE9rF0VgWVJm3","standard","2","261","LP","3.49090909090909","379.398","NaN","379.557","0.159","NaN","0","273",NA
"330","R_2EsE9rF0VgWVJm3","standard","2","262","LP","13.0392072382594","380.565","NaN","380.924","0.359","NaN","0","273",NA
"331","R_2EsE9rF0VgWVJm3","standard","2","263","LP","0.661783713916415","381.926","NaN","382.496","0.57","NaN","0","273",NA
"332","R_2EsE9rF0VgWVJm3","standard","2","264","LP","19.8235243429556","383.509","NaN","383.806","0.297","NaN","0","273",NA
"333","R_2EsE9rF0VgWVJm3","standard","2","265","LP","0.661783713916415","384.808","NaN","385.315","0.507","NaN","0","273",NA
"334","R_2EsE9rF0VgWVJm3","standard","2","266","LP","1.25738905644119","386.318","NaN","386.765","0.447","NaN","0","273",NA
"335","R_2EsE9rF0VgWVJm3","standard","2","267","LP","30","387.766","NaN","388.157","0.391","NaN","0","273",NA
"336","R_2EsE9rF0VgWVJm3","standard","2","268","LP","0.264713485566566","389.172","NaN","389.346","0.174","NaN","0","273",NA
"337","R_2EsE9rF0VgWVJm3","standard","2","269","LP","19.8235243429556","390.349","NaN","390.465","0.116","NaN","0","273",NA
"338","R_2EsE9rF0VgWVJm3","standard","2","270","LP","0.661783713916415","391.47","NaN","391.86","0.39","NaN","0","273",NA
"339","R_2EsE9rF0VgWVJm3","standard","2","271","LP","2.15079707022835","392.861","NaN","393.165","0.304","NaN","0","273",NA
"340","R_2EsE9rF0VgWVJm3","standard","2","272","LP","1.25738905644119","394.165","NaN","394.294","0.129","NaN","0","273",NA
"341","R_2EsE9rF0VgWVJm3","standard","2","273","LP","3.49090909090909","395.321","NaN","395.334","0.013","NaN","0","273",NA
"342","R_2EsE9rF0VgWVJm3","standard","2","274","LP","3.49090909090909","396.341","NaN","396.435","0.094","NaN","0","273",NA
"343","R_2EsE9rF0VgWVJm3","standard","2","275","LP","5.5010771219302","397.435","NaN","397.524","0.089","NaN","0","273",NA
"344","R_2EsE9rF0VgWVJm3","standard","2","276","LP","30","398.545","NaN","398.615","0.07","NaN","0","273",NA
"345","R_2EsE9rF0VgWVJm3","standard","2","277","LP","13.0392072382594","399.621","NaN","399.666","0.045","NaN","0","273",NA
"346","R_2EsE9rF0VgWVJm3","standard","2","278","LP","5.5010771219302","400.672","NaN","400.745","0.073","NaN","0","273",NA
"347","R_2EsE9rF0VgWVJm3","standard","2","279","LP","5.5010771219302","401.749","NaN","401.819","0.07","NaN","0","273",NA
"348","R_2EsE9rF0VgWVJm3","standard","2","280","LP","19.8235243429556","402.822","NaN","402.935","0.113","NaN","0","273",NA
"349","R_2EsE9rF0VgWVJm3","standard","2","281","LP","19.8235243429556","403.941","NaN","404.065","0.124","NaN","0","273",NA
"350","R_2EsE9rF0VgWVJm3","standard","2","282","LP","13.0392072382594","405.069","NaN","405.174","0.105","NaN","0","273",NA
"351","R_2EsE9rF0VgWVJm3","standard","2","283","LP","5.5010771219302","406.188","NaN","406.247","0.059","NaN","0","273",NA
"352","R_2EsE9rF0VgWVJm3","standard","2","284","LP","13.0392072382594","407.253","NaN","407.326","0.073","NaN","0","273",NA
"353","R_2EsE9rF0VgWVJm3","standard","2","285","LP","5.5010771219302","408.333","NaN","408.666","0.333","NaN","0","273",NA
"354","R_2EsE9rF0VgWVJm3","standard","2","286","LP","0.661783713916415","409.669","NaN","409.827","0.158","NaN","0","273",NA
"355","R_2EsE9rF0VgWVJm3","standard","2","287","LP","0.661783713916415","410.829","NaN","410.882","0.053","NaN","0","273",NA
"356","R_2EsE9rF0VgWVJm3","standard","2","288","LP","30","411.886","NaN","411.945","0.059","NaN","0","273",NA
"357","R_2EsE9rF0VgWVJm3","standard","2","289","LP","30","412.95","NaN","413.036","0.086","NaN","0","273",NA
"358","R_2EsE9rF0VgWVJm3","standard","2","290","LP","5.5010771219302","414.044","NaN","414.115","0.071","NaN","0","273",NA
"359","R_2EsE9rF0VgWVJm3","standard","2","291","LP","19.8235243429556","415.237","NaN","415.755","0.518","NaN","0","273",NA
"360","R_2EsE9rF0VgWVJm3","standard","2","292","LP","8.51632916846187","416.773","NaN","416.857","0.084","NaN","0","273",NA
"361","R_2EsE9rF0VgWVJm3","standard","2","293","LP","5.5010771219302","417.869","NaN","417.985","0.116","NaN","0","273",NA
"362","R_2EsE9rF0VgWVJm3","standard","2","294","LP","1.25738905644119","418.989","NaN","419.027","0.038","NaN","0","273",NA
"363","R_2EsE9rF0VgWVJm3","standard","2","295","LP","1.25738905644119","420.029","NaN","420.115","0.086","NaN","0","273",NA
"364","R_2EsE9rF0VgWVJm3","standard","2","296","LP","0.264713485566566","421.118","NaN","421.176","0.058","NaN","0","273",NA
"365","R_2EsE9rF0VgWVJm3","standard","2","297","LP","8.51632916846187","422.196","NaN","422.226","0.03","NaN","0","273",NA
"366","R_2EsE9rF0VgWVJm3","standard","2","298","LP","0.264713485566566","423.23","NaN","423.307","0.077","NaN","0","273",NA
"367","R_2EsE9rF0VgWVJm3","standard","2","299","LP","19.8235243429556","424.31","NaN","424.364","0.054","NaN","0","273",NA
"368","R_2EsE9rF0VgWVJm3","standard","2","300","LP","1.25738905644119","425.372","NaN","425.48","0.108","NaN","0","273",NA
"369","R_2EsE9rF0VgWVJm3","standard","2","301","LP","8.51632916846187","426.488","NaN","426.572","0.084","NaN","0","273",NA
"370","R_2EsE9rF0VgWVJm3","standard","2","302","LP","0.661783713916415","427.587","NaN","427.664","0.077","NaN","0","273",NA
"371","R_2EsE9rF0VgWVJm3","standard","2","303","LP","0.264713485566566","428.67","NaN","428.814","0.144","NaN","0","273",NA
"372","R_2EsE9rF0VgWVJm3","standard","2","304","LP","13.0392072382594","429.822","NaN","429.874","0.052","NaN","0","273",NA
"373","R_2EsE9rF0VgWVJm3","standard","2","305","LP","3.49090909090909","430.876","NaN","430.918","0.042","NaN","0","273",NA
"374","R_2EsE9rF0VgWVJm3","standard","2","306","LP","13.0392072382594","431.925","NaN","431.945","0.02","NaN","0","273",NA
"375","R_2EsE9rF0VgWVJm3","standard","2","307","LP","0.264713485566566","432.955","433.222","433.518","0.563","0.296","3","276",NA
"376","R_2EsE9rF0VgWVJm3","standard","2","308","LP","0.264713485566566","434.533","NaN","434.564","0.031","NaN","0","276",NA
"377","R_2EsE9rF0VgWVJm3","standard","2","309","LP","1.25738905644119","435.573","NaN","435.613","0.04","NaN","0","276",NA
"378","R_2EsE9rF0VgWVJm3","standard","2","310","LP","30","436.621","NaN","436.667","0.046","NaN","0","276",NA
"379","R_2EsE9rF0VgWVJm3","standard","2","311","LP","0.264713485566566","437.669","NaN","437.735","0.066","NaN","0","276",NA
"380","R_2EsE9rF0VgWVJm3","standard","2","312","LP","0.264713485566566","438.741","NaN","438.825","0.084","NaN","0","276",NA
"381","R_2EsE9rF0VgWVJm3","standard","2","313","LP","30","439.829","NaN","439.894","0.065","NaN","0","276",NA
"382","R_2EsE9rF0VgWVJm3","standard","2","314","LP","1.25738905644119","440.906","NaN","441.026","0.12","NaN","0","276",NA
"383","R_2EsE9rF0VgWVJm3","standard","2","315","LP","19.8235243429556","442.03","NaN","442.144","0.114","NaN","0","276",NA
"384","R_2EsE9rF0VgWVJm3","standard","2","316","LP","0.661783713916415","443.15","NaN","443.47","0.32","NaN","0","276",NA
"385","R_2EsE9rF0VgWVJm3","standard","2","317","LP","8.51632916846187","444.478","NaN","444.487","0.009","NaN","0","276",NA
"386","R_2EsE9rF0VgWVJm3","standard","2","318","LP","3.49090909090909","445.493","NaN","445.518","0.025","NaN","0","276",NA
"387","R_2EsE9rF0VgWVJm3","standard","2","319","LP","0.264713485566566","446.521","NaN","446.647","0.126","NaN","0","276",NA
"388","R_2EsE9rF0VgWVJm3","standard","2","320","LP","2.15079707022835","447.655","NaN","447.716","0.061","NaN","0","276",NA
"389","R_2EsE9rF0VgWVJm3","standard","2","321","LP","2.15079707022835","448.718","NaN","448.824","0.106","NaN","0","276",NA
"390","R_2EsE9rF0VgWVJm3","standard","2","322","LP","0.661783713916415","449.839","NaN","449.916","0.077","NaN","0","276",NA
"391","R_2EsE9rF0VgWVJm3","standard","2","323","LP","0.264713485566566","450.917","NaN","450.936","0.019","NaN","0","276",NA
"392","R_2EsE9rF0VgWVJm3","standard","2","324","LP","30","451.942","NaN","452.008","0.066","NaN","0","276",NA
"393","R_2EsE9rF0VgWVJm3","standard","2","325","LP","13.0392072382594","453.02","NaN","453.052","0.032","NaN","0","276",NA
"394","R_2EsE9rF0VgWVJm3","standard","2","326","LP","0.264713485566566","454.053","NaN","454.107","0.054","NaN","0","276",NA
"395","R_2EsE9rF0VgWVJm3","standard","2","327","LP","1.25738905644119","455.11","NaN","455.135","0.025","NaN","0","276",NA
"396","R_2EsE9rF0VgWVJm3","standard","2","328","LP","13.0392072382594","456.142","NaN","456.155","0.013","NaN","0","276",NA
"397","R_2EsE9rF0VgWVJm3","standard","2","329","LP","1.25738905644119","457.169","NaN","457.248","0.079","NaN","0","276",NA
"398","R_2EsE9rF0VgWVJm3","standard","2","330","LP","30","458.254","NaN","458.389","0.135","NaN","0","276",NA
"399","R_2EsE9rF0VgWVJm3","standard","2","331","LP","19.8235243429556","459.402","NaN","459.487","0.085","NaN","0","276",NA
"400","R_2EsE9rF0VgWVJm3","standard","2","332","LP","13.0392072382594","460.502","NaN","460.603","0.101","NaN","0","276",NA
"401","R_2EsE9rF0VgWVJm3","standard","2","333","LP","0.661783713916415","461.607","NaN","461.689","0.082","NaN","0","276",NA
"402","R_2EsE9rF0VgWVJm3","standard","2","334","LP","5.5010771219302","462.713","NaN","462.819","0.106","NaN","0","276",NA
"403","R_2EsE9rF0VgWVJm3","standard","2","335","LP","30","463.822","NaN","463.914","0.092","NaN","0","276",NA
"404","R_2EsE9rF0VgWVJm3","standard","2","336","LP","13.0392072382594","464.917","NaN","465.027","0.11","NaN","0","276",NA
"405","R_2EsE9rF0VgWVJm3","standard","2","337","LP","0.661783713916415","466.077","NaN","466.145","0.068","NaN","0","276",NA
"406","R_2EsE9rF0VgWVJm3","standard","2","338","LP","13.0392072382594","467.15","NaN","467.235","0.085","NaN","0","276",NA
"407","R_2EsE9rF0VgWVJm3","standard","2","339","LP","0.264713485566566","468.237","NaN","468.315","0.078","NaN","0","276",NA
"408","R_2EsE9rF0VgWVJm3","standard","2","340","LP","3.49090909090909","469.318","NaN","469.406","0.088","NaN","0","276",NA
"409","R_2EsE9rF0VgWVJm3","standard","2","341","LP","5.5010771219302","470.421","NaN","470.506","0.085","NaN","0","276",NA
"410","R_2EsE9rF0VgWVJm3","standard","2","342","LP","5.5010771219302","471.51","NaN","471.566","0.056","NaN","0","276",NA
"411","R_2EsE9rF0VgWVJm3","standard","2","343","LP","0.264713485566566","472.567","NaN","472.694","0.127","NaN","0","276",NA
"412","R_2EsE9rF0VgWVJm3","standard","2","344","LP","5.5010771219302","473.702","NaN","473.825","0.123","NaN","0","276",NA
"413","R_2EsE9rF0VgWVJm3","standard","2","345","LP","30","474.83","NaN","475.015","0.185","NaN","0","276",NA
"414","R_2EsE9rF0VgWVJm3","standard","2","346","LP","19.8235243429556","476.017","NaN","476.085","0.068","NaN","0","276",NA
"415","R_2EsE9rF0VgWVJm3","standard","2","347","LP","0.661783713916415","477.101","NaN","477.134","0.033","NaN","0","276",NA
"416","R_2EsE9rF0VgWVJm3","standard","2","348","LP","5.5010771219302","478.142","NaN","478.417","0.275","NaN","0","276",NA
"417","R_2EsE9rF0VgWVJm3","standard","2","349","LP","1.25738905644119","479.422","NaN","479.568","0.146","NaN","0","276",NA
"418","R_2EsE9rF0VgWVJm3","standard","2","350","LP","3.49090909090909","480.586","NaN","480.634","0.048","NaN","0","276",NA
"419","R_2EsE9rF0VgWVJm3","standard","2","351","LP","13.0392072382594","481.637","NaN","482.168","0.531","NaN","0","276",NA
"420","R_2EsE9rF0VgWVJm3","standard","2","352","LP","5.5010771219302","483.187","NaN","483.27","0.083","NaN","0","276",NA
"421","R_2EsE9rF0VgWVJm3","standard","2","353","LP","3.49090909090909","484.287","NaN","484.472","0.185","NaN","0","276",NA
"422","R_2EsE9rF0VgWVJm3","standard","2","354","LP","0.264713485566566","485.485","485.758","485.895","0.41","0.137","3","279",NA
"423","R_2EsE9rF0VgWVJm3","standard","2","355","LP","19.8235243429556","486.901","NaN","487.275","0.374","NaN","0","279",NA
"424","R_2EsE9rF0VgWVJm3","standard","2","356","LP","13.0392072382594","488.285","NaN","488.365","0.08","NaN","0","279",NA
"425","R_2EsE9rF0VgWVJm3","standard","2","357","LP","8.51632916846187","489.366","NaN","489.476","0.11","NaN","0","279",NA
"426","R_2EsE9rF0VgWVJm3","standard","2","358","LP","30","490.478","NaN","490.646","0.168","NaN","0","279",NA
"427","R_2EsE9rF0VgWVJm3","standard","2","359","LP","30","491.653","NaN","491.825","0.172","NaN","0","279",NA
"428","R_2EsE9rF0VgWVJm3","standard","2","360","LP","13.0392072382594","492.83","NaN","492.93","0.1","NaN","0","279",NA
"429","R_2EsE9rF0VgWVJm3","standard","2","361","LP","5.5010771219302","493.934","NaN","494.065","0.131","NaN","0","279",NA
"430","R_2EsE9rF0VgWVJm3","standard","2","362","LP","8.51632916846187","495.07","NaN","495.205","0.135","NaN","0","279",NA
"431","R_2EsE9rF0VgWVJm3","standard","2","363","LP","0.661783713916415","496.22","NaN","496.235","0.015","NaN","0","279",NA
"432","R_2EsE9rF0VgWVJm3","standard","2","364","LP","3.49090909090909","497.238","NaN","497.358","0.12","NaN","0","279",NA
"433","R_2EsE9rF0VgWVJm3","standard","2","365","LP","0.264713485566566","498.365","NaN","498.475","0.11","NaN","0","279",NA
"434","R_2EsE9rF0VgWVJm3","standard","2","366","LP","0.661783713916415","499.477","NaN","499.736","0.259","NaN","0","279",NA
"435","R_2EsE9rF0VgWVJm3","standard","2","367","LP","13.0392072382594","500.753","NaN","500.93","0.177","NaN","0","279",NA
"436","R_2EsE9rF0VgWVJm3","standard","2","368","LP","13.0392072382594","501.933","NaN","502.088","0.155","NaN","0","279",NA
"437","R_2EsE9rF0VgWVJm3","standard","2","369","LP","8.51632916846187","503.116","NaN","503.235","0.119","NaN","0","279",NA
"438","R_2EsE9rF0VgWVJm3","standard","2","370","LP","0.264713485566566","504.238","NaN","504.355","0.117","NaN","0","279",NA
"439","R_2EsE9rF0VgWVJm3","standard","2","371","LP","2.15079707022835","505.369","NaN","505.444","0.075","NaN","0","279",NA
"440","R_2EsE9rF0VgWVJm3","standard","2","372","LP","13.0392072382594","506.446","NaN","506.636","0.19","NaN","0","279",NA
"441","R_2EsE9rF0VgWVJm3","standard","2","373","LP","13.0392072382594","507.637","NaN","507.724","0.087","NaN","0","279",NA
"442","R_2EsE9rF0VgWVJm3","standard","2","374","LP","19.8235243429556","508.725","NaN","508.827","0.102","NaN","0","279",NA
"443","R_2EsE9rF0VgWVJm3","standard","2","375","LP","30","509.83","NaN","509.948","0.118","NaN","0","279",NA
"444","R_2EsE9rF0VgWVJm3","standard","2","376","LP","5.5010771219302","510.952","NaN","510.978","0.026","NaN","0","279",NA
"445","R_2EsE9rF0VgWVJm3","standard","2","377","LP","13.0392072382594","511.986","NaN","512.105","0.119","NaN","0","279",NA
"446","R_2EsE9rF0VgWVJm3","standard","2","378","LP","30","513.116","NaN","513.238","0.122","NaN","0","279",NA
"447","R_2EsE9rF0VgWVJm3","standard","2","379","LP","1.25738905644119","514.246","NaN","514.347","0.101","NaN","0","279",NA
"448","R_2EsE9rF0VgWVJm3","standard","2","380","LP","2.15079707022835","515.35","NaN","515.475","0.125","NaN","0","279",NA
"449","R_2EsE9rF0VgWVJm3","standard","2","381","LP","8.51632916846187","516.477","NaN","516.556","0.079","NaN","0","279",NA
"450","R_2EsE9rF0VgWVJm3","standard","2","382","LP","30","517.587","NaN","517.745","0.158","NaN","0","279",NA
"451","R_2EsE9rF0VgWVJm3","standard","2","383","LP","0.264713485566566","518.75","NaN","518.865","0.115","NaN","0","279",NA
"452","R_2EsE9rF0VgWVJm3","standard","2","384","LP","5.5010771219302","519.869","NaN","520.015","0.146","NaN","0","279",NA
"453","R_2EsE9rF0VgWVJm3","standard","2","385","LP","13.0392072382594","521.022","NaN","521.126","0.104","NaN","0","279",NA
"454","R_2EsE9rF0VgWVJm3","standard","2","386","LP","0.661783713916415","522.134","NaN","522.144","0.01","NaN","0","279",NA
"455","R_2EsE9rF0VgWVJm3","standard","2","387","LP","5.5010771219302","523.149","NaN","523.246","0.097","NaN","0","279",NA
"456","R_2EsE9rF0VgWVJm3","standard","2","388","LP","0.264713485566566","524.254","NaN","524.355","0.101","NaN","0","279",NA
"457","R_2EsE9rF0VgWVJm3","standard","2","389","LP","2.15079707022835","525.358","NaN","525.484","0.126","NaN","0","279",NA
"458","R_2EsE9rF0VgWVJm3","standard","2","390","LP","13.0392072382594","526.499","NaN","526.626","0.127","NaN","0","279",NA
"459","R_2EsE9rF0VgWVJm3","standard","2","391","LP","30","527.629","NaN","527.834","0.205","NaN","0","279",NA
"460","R_2EsE9rF0VgWVJm3","standard","2","392","LP","0.661783713916415","528.837","NaN","528.944","0.107","NaN","0","279",NA
"461","R_2EsE9rF0VgWVJm3","standard","2","393","LP","3.49090909090909","529.95","NaN","530.136","0.186","NaN","0","279",NA
"462","R_2EsE9rF0VgWVJm3","standard","2","394","LP","5.5010771219302","531.167","NaN","531.268","0.101","NaN","0","279",NA
"463","R_2EsE9rF0VgWVJm3","standard","2","395","LP","30","532.27","NaN","532.354","0.084","NaN","0","279",NA
"464","R_2EsE9rF0VgWVJm3","standard","2","396","LP","19.8235243429556","533.357","NaN","533.465","0.108","NaN","0","279",NA
"465","R_2EsE9rF0VgWVJm3","standard","2","397","LP","13.0392072382594","534.469","NaN","534.605","0.136","NaN","0","279",NA
"466","R_2EsE9rF0VgWVJm3","standard","2","398","LP","0.264713485566566","535.62","NaN","535.825","0.205","NaN","0","279",NA
"467","R_2EsE9rF0VgWVJm3","standard","2","399","LP","2.15079707022835","536.829","NaN","537.072","0.243","NaN","0","279",NA
"468","R_2EsE9rF0VgWVJm3","standard","2","400","LP","8.51632916846187","538.084","NaN","538.364","0.28","NaN","0","279",NA
"469","R_2EsE9rF0VgWVJm3","standard","2","401","LP","5.5010771219302","539.368","NaN","539.6","0.232","NaN","0","279",NA
"470","R_2EsE9rF0VgWVJm3","standard","2","402","LP","19.8235243429556","540.621","NaN","540.983","0.362","NaN","0","279",NA
"471","R_2EsE9rF0VgWVJm3","standard","2","403","LP","1.25738905644119","541.999","NaN","542.314","0.315","NaN","0","279",NA
"472","R_2EsE9rF0VgWVJm3","standard","2","404","LP","0.661783713916415","543.317","NaN","543.628","0.311","NaN","0","279",NA
"473","R_2EsE9rF0VgWVJm3","standard","2","405","LP","5.5010771219302","544.629","NaN","544.925","0.296","NaN","0","279",NA
"474","R_2EsE9rF0VgWVJm3","standard","2","406","LP","1.25738905644119","545.926","NaN","546.234","0.308","NaN","0","279",NA
"475","R_2EsE9rF0VgWVJm3","standard","2","407","LP","19.8235243429556","547.237","NaN","547.656","0.419","NaN","0","279",NA
"476","R_2EsE9rF0VgWVJm3","standard","2","408","LP","1.25738905644119","548.661","NaN","549.084","0.423","NaN","0","279",NA
"477","R_2EsE9rF0VgWVJm3","standard","2","409","LP","19.8235243429556","550.098","NaN","550.484","0.386","NaN","0","279",NA
"478","R_2EsE9rF0VgWVJm3","standard","2","410","LP","13.0392072382594","551.501","NaN","551.839","0.338","NaN","0","279",NA
"479","R_2EsE9rF0VgWVJm3","standard","2","411","LP","5.5010771219302","552.845","NaN","552.988","0.143","NaN","0","279",NA
"480","R_2EsE9rF0VgWVJm3","standard","2","412","LP","19.8235243429556","553.999","NaN","554.301","0.302","NaN","0","279",NA
"481","R_2EsE9rF0VgWVJm3","standard","2","413","LP","0.661783713916415","555.307","NaN","555.625","0.318","NaN","0","279",NA
"482","R_2EsE9rF0VgWVJm3","standard","2","414","LP","19.8235243429556","556.63","NaN","556.936","0.306","NaN","0","279",NA
"483","R_2EsE9rF0VgWVJm3","standard","2","415","LP","1.25738905644119","557.942","NaN","558.266","0.324","NaN","0","279",NA
"484","R_2EsE9rF0VgWVJm3","standard","2","416","LP","3.49090909090909","559.274","NaN","559.668","0.394","NaN","0","279",NA
"485","R_2EsE9rF0VgWVJm3","standard","2","417","LP","1.25738905644119","560.679","NaN","561.249","0.57","NaN","0","279",NA
"486","R_2EsE9rF0VgWVJm3","standard","2","418","LP","0.661783713916415","562.254","NaN","562.535","0.281","NaN","0","279",NA
"487","R_2EsE9rF0VgWVJm3","standard","2","419","LP","5.5010771219302","563.535","NaN","563.885","0.35","NaN","0","279",NA
"488","R_2EsE9rF0VgWVJm3","standard","2","420","LP","30","564.932","NaN","565.248","0.316","NaN","0","279",NA
"489","R_2EsE9rF0VgWVJm3","standard","2","421","LP","19.8235243429556","566.267","NaN","566.584","0.317","NaN","0","279",NA
"490","R_2EsE9rF0VgWVJm3","standard","2","422","LP","2.15079707022835","567.601","NaN","567.925","0.324","NaN","0","279",NA
"491","R_2EsE9rF0VgWVJm3","standard","2","423","LP","0.264713485566566","568.925","569.196","569.301","0.376","0.105","3","282",NA
"492","R_2EsE9rF0VgWVJm3","standard","2","424","LP","8.51632916846187","570.318","NaN","570.715","0.397","NaN","0","282",NA
"493","R_2EsE9rF0VgWVJm3","standard","2","425","LP","30","571.716","NaN","571.871","0.155","NaN","0","282",NA
"494","R_2EsE9rF0VgWVJm3","standard","2","426","LP","0.264713485566566","572.883","NaN","573.036","0.153","NaN","0","282",NA
"495","R_2EsE9rF0VgWVJm3","standard","2","427","LP","5.5010771219302","574.037","NaN","574.201","0.164","NaN","0","282",NA
"496","R_2EsE9rF0VgWVJm3","standard","2","428","LP","0.264713485566566","575.216","NaN","575.386","0.17","NaN","0","282",NA
"497","R_2EsE9rF0VgWVJm3","standard","2","429","LP","13.0392072382594","576.4","NaN","576.545","0.145","NaN","0","282",NA
"498","R_2EsE9rF0VgWVJm3","standard","2","430","LP","1.25738905644119","577.55","NaN","577.677","0.127","NaN","0","282",NA
"499","R_2EsE9rF0VgWVJm3","standard","2","431","LP","5.5010771219302","578.678","NaN","578.85","0.172","NaN","0","282",NA
"500","R_2EsE9rF0VgWVJm3","standard","2","432","LP","1.25738905644119","579.862","NaN","580.005","0.143","NaN","0","282",NA
"501","R_2EsE9rF0VgWVJm3","standard","2","433","LP","1.25738905644119","581.005","NaN","581.074","0.069","NaN","0","282",NA
"502","R_2EsE9rF0VgWVJm3","standard","2","434","LP","30","582.078","NaN","582.575","0.497","NaN","0","282",NA
"503","R_2EsE9rF0VgWVJm3","standard","2","435","LP","0.661783713916415","583.581","NaN","584.162","0.581","NaN","0","282",NA
"504","R_2EsE9rF0VgWVJm3","standard","2","436","LP","13.0392072382594","585.165","NaN","585.271","0.106","NaN","0","282",NA
"505","R_2EsE9rF0VgWVJm3","standard","2","437","LP","3.49090909090909","586.277","NaN","586.296","0.019","NaN","0","282",NA
"506","R_2EsE9rF0VgWVJm3","standard","2","438","LP","19.8235243429556","587.301","NaN","587.598","0.297","NaN","0","282",NA
"507","R_2EsE9rF0VgWVJm3","standard","2","439","LP","30","588.622","NaN","588.639","0.017","NaN","0","282",NA
"508","R_2EsE9rF0VgWVJm3","standard","2","440","LP","0.661783713916415","589.646","NaN","589.748","0.102","NaN","0","282",NA
"509","R_2EsE9rF0VgWVJm3","standard","2","441","LP","30","590.756","NaN","591.346","0.59","NaN","0","282",NA
"510","R_2EsE9rF0VgWVJm3","standard","2","442","LP","19.8235243429556","592.349","NaN","592.395","0.046","NaN","0","282",NA
"511","R_2EsE9rF0VgWVJm3","standard","2","443","LP","3.49090909090909","593.399","NaN","593.526","0.127","NaN","0","282",NA
"512","R_2EsE9rF0VgWVJm3","standard","2","444","LP","19.8235243429556","594.533","NaN","594.599","0.066","NaN","0","282",NA
"513","R_2EsE9rF0VgWVJm3","standard","2","445","LP","0.264713485566566","595.618","NaN","595.764","0.146","NaN","0","282",NA
"514","R_2EsE9rF0VgWVJm3","standard","2","446","LP","1.25738905644119","596.765","NaN","596.961","0.196","NaN","0","282",NA
"515","R_2EsE9rF0VgWVJm3","standard","2","447","LP","2.15079707022835","597.965","NaN","598.235","0.27","NaN","0","282",NA
"516","R_2EsE9rF0VgWVJm3","standard","2","448","LP","5.5010771219302","599.238","NaN","599.421","0.183","NaN","0","282",NA
