"","subject_id","condition","n_block","n_trialIdx","f_timing_condition","n_scheduled_delay","n_trial_start_time","n_rewarded_time_fin","n_sell_time_fin","n_time_waited_fin","RT_fin","n_trial_earnings_fin","n_total_earnings_fin","keypress_times"
"1","R_2gCrqr1LTFBdK7f","standard","1","1","LP","30","0.001","30.008","30.334","30.333","0.326","3","3",""
"2","R_2gCrqr1LTFBdK7f","standard","1","2","LP","30","31.336","61.344","61.613","30.277","0.269","3","6",""
"3","R_2gCrqr1LTFBdK7f","standard","1","3","LP","8.51632916846187","62.616","71.135","71.492","8.876","0.357","3","9",""
"4","R_2gCrqr1LTFBdK7f","standard","1","4","LP","19.8235243429556","72.496","92.319","92.581","20.085","0.262","3","12",""
"5","R_2gCrqr1LTFBdK7f","standard","1","5","LP","0.264713485566566","93.584","93.855","94.5","0.916","0.645","3","15",""
"6","R_2gCrqr1LTFBdK7f","standard","1","6","LP","19.8235243429556","95.504","115.335","115.628","20.124","0.293","3","18",""
"7","R_2gCrqr1LTFBdK7f","standard","1","7","LP","3.49090909090909","116.632","120.126","120.428","3.796","0.302","3","21",""
"8","R_2gCrqr1LTFBdK7f","standard","1","8","LP","19.8235243429556","121.431","141.256","141.533","20.102","0.277","3","24",""
"9","R_2gCrqr1LTFBdK7f","standard","1","9","LP","1.25738905644119","142.537","143.8","144.084","1.547","0.284","3","27",""
"10","R_2gCrqr1LTFBdK7f","standard","1","10","LP","0.264713485566566","145.089","145.361","145.724","0.635","0.363","3","30",""
"11","R_2gCrqr1LTFBdK7f","standard","1","11","LP","19.8235243429556","146.729","166.561","166.868","20.139","0.307","3","33",""
"12","R_2gCrqr1LTFBdK7f","standard","1","12","LP","8.51632916846187","167.873","176.393","176.795","8.922","0.402","3","33","6963"
"13","R_2gCrqr1LTFBdK7f","standard","1","13","LP","2.15079707022835","177.8","179.952","180.42","2.62","0.468","3","36",""
"14","R_2gCrqr1LTFBdK7f","standard","1","14","LP","13.0392072382594","181.424","194.474","194.797","13.373","0.323","3","39",""
"15","R_2gCrqr1LTFBdK7f","standard","1","15","LP","1.25738905644119","195.802","197.066","197.444","1.642","0.378","3","42",""
"16","R_2gCrqr1LTFBdK7f","standard","1","16","LP","2.15079707022835","198.449","200.601","200.9","2.451","0.299","3","45",""
"17","R_2gCrqr1LTFBdK7f","standard","1","17","LP","13.0392072382594","201.905","214.954","215.308","13.403","0.354","3","48",""
"18","R_2gCrqr1LTFBdK7f","standard","1","18","LP","19.8235243429556","216.314","236.146","236.436","20.122","0.29","3","51",""
"19","R_2gCrqr1LTFBdK7f","standard","1","19","LP","1.25738905644119","237.442","238.706","239.211","1.769","0.505","3","54",""
"20","R_2gCrqr1LTFBdK7f","standard","1","20","LP","30","240.212","270.218","270.515","30.303","0.297","3","57",""
"21","R_2gCrqr1LTFBdK7f","standard","1","21","LP","5.5010771219302","271.522","277.024","277.331","5.809","0.307","3","60",""
"22","R_2gCrqr1LTFBdK7f","standard","1","22","LP","19.8235243429556","278.338","298.17","298.491","20.153","0.321","3","63",""
"23","R_2gCrqr1LTFBdK7f","standard","1","23","LP","5.5010771219302","299.498","305.002","305.37","5.872","0.368","3","66",""
"24","R_2gCrqr1LTFBdK7f","standard","1","24","LP","8.51632916846187","306.377","314.899","315.212","8.835","0.313","3","69",""
"25","R_2gCrqr1LTFBdK7f","standard","1","25","LP","0.264713485566566","316.213","316.483","316.947","0.734","0.464","3","72",""
"26","R_2gCrqr1LTFBdK7f","standard","1","26","LP","30","317.955","347.963","348.267","30.312","0.304","3","75",""
"27","R_2gCrqr1LTFBdK7f","standard","1","27","LP","3.49090909090909","349.275","352.771","353.202","3.927","0.431","3","78",""
"28","R_2gCrqr1LTFBdK7f","standard","1","28","LP","13.0392072382594","354.211","367.251","367.571","13.36","0.32","3","81",""
"29","R_2gCrqr1LTFBdK7f","standard","1","29","LP","2.15079707022835","368.58","370.731","371.09","2.51","0.359","3","84",""
"30","R_2gCrqr1LTFBdK7f","standard","1","30","LP","0.661783713916415","372.091","372.755","373.195","1.104","0.44","3","87",""
"31","R_2gCrqr1LTFBdK7f","standard","1","31","LP","1.25738905644119","374.203","375.467","375.827","1.624","0.36","3","90",""
"32","R_2gCrqr1LTFBdK7f","standard","1","32","LP","0.264713485566566","376.836","377.107","377.483","0.647","0.376","3","93",""
"33","R_2gCrqr1LTFBdK7f","standard","1","33","LP","13.0392072382594","378.492","391.533","391.947","13.455","0.414","3","96",""
"34","R_2gCrqr1LTFBdK7f","standard","1","34","LP","2.15079707022835","392.955","395.108","395.466","2.511","0.358","3","99",""
"35","R_2gCrqr1LTFBdK7f","standard","1","35","LP","0.661783713916415","396.467","397.131","397.458","0.991","0.327","3","102",""
"36","R_2gCrqr1LTFBdK7f","standard","1","36","LP","3.49090909090909","398.459","401.955","402.291","3.832","0.336","3","105",""
"37","R_2gCrqr1LTFBdK7f","standard","1","37","LP","5.5010771219302","403.3","408.804","409.202","5.902","0.398","3","108",""
"38","R_2gCrqr1LTFBdK7f","standard","1","38","LP","19.8235243429556","410.204","430.036","430.394","20.19","0.358","3","111",""
"39","R_2gCrqr1LTFBdK7f","standard","1","39","LP","30","431.404","461.412","461.722","30.318","0.31","3","114",""
"40","R_2gCrqr1LTFBdK7f","standard","1","40","LP","19.8235243429556","462.724","482.556","482.994","20.27","0.438","3","117",""
"41","R_2gCrqr1LTFBdK7f","standard","1","41","LP","2.15079707022835","483.996","486.148","486.481","2.485","0.333","3","120",""
"42","R_2gCrqr1LTFBdK7f","standard","1","42","LP","30","487.484","517.493","517.794","30.31","0.301","3","123",""
"43","R_2gCrqr1LTFBdK7f","standard","1","43","LP","8.51632916846187","518.797","527.317","527.665","8.868","0.348","3","126",""
"44","R_2gCrqr1LTFBdK7f","standard","1","44","LP","0.264713485566566","528.669","528.94","529.29","0.621","0.35","3","129",""
"45","R_2gCrqr1LTFBdK7f","standard","1","45","LP","8.51632916846187","530.293","538.815","539.169","8.876","0.354","3","132",""
"46","R_2gCrqr1LTFBdK7f","standard","1","46","LP","5.5010771219302","540.173","545.677","546.033","5.86","0.356","3","135",""
"47","R_2gCrqr1LTFBdK7f","standard","1","47","LP","2.15079707022835","547.037","549.189","549.593","2.556","0.404","3","138",""
"48","R_2gCrqr1LTFBdK7f","standard","1","48","LP","5.5010771219302","550.597","556.101","556.474","5.877","0.373","3","141",""
"49","R_2gCrqr1LTFBdK7f","standard","1","49","LP","19.8235243429556","557.477","577.309","577.689","20.212","0.38","3","144",""
"50","R_2gCrqr1LTFBdK7f","standard","1","50","LP","3.49090909090909","578.693","582.189","582.624","3.931","0.435","3","147",""
"51","R_2gCrqr1LTFBdK7f","standard","1","51","LP","2.15079707022835","583.63","585.781","586.136","2.506","0.355","3","150",""
"52","R_2gCrqr1LTFBdK7f","standard","1","52","LP","19.8235243429556","587.141","606.964","607.353","20.212","0.389","3","153",""
"53","R_2gCrqr1LTFBdK7f","standard","1","53","LP","0.264713485566566","608.357","608.629","609","0.643","0.371","3","156",""
"54","R_2gCrqr1LTFBdK7f","standard","1","54","LP","3.49090909090909","610.005","613.502","613.849","3.844","0.347","3","159",""
"55","R_2gCrqr1LTFBdK7f","standard","1","55","LP","3.49090909090909","614.854","618.347","618.746","3.892","0.399","3","162",""
"56","R_2gCrqr1LTFBdK7f","standard","1","56","LP","1.25738905644119","619.75","621.015","621.409","1.659","0.394","3","165",""
"57","R_2gCrqr1LTFBdK7f","standard","1","57","LP","8.51632916846187","622.415","630.934","631.289","8.874","0.355","3","168",""
"58","R_2gCrqr1LTFBdK7f","standard","1","58","LP","0.264713485566566","632.294","632.566","633.08","0.786","0.514","3","171",""
"59","R_2gCrqr1LTFBdK7f","standard","1","59","LP","3.49090909090909","634.086","637.582","637.961","3.875","0.379","3","174",""
"60","R_2gCrqr1LTFBdK7f","standard","1","60","LP","5.5010771219302","638.966","644.47","644.897","5.931","0.427","3","177",""
"61","R_2gCrqr1LTFBdK7f","standard","1","61","LP","19.8235243429556","645.903","665.734","666.072","20.169","0.338","3","180",""
"62","R_2gCrqr1LTFBdK7f","standard","1","62","LP","30","667.079","697.086","697.408","30.329","0.322","3","183",""
"63","R_2gCrqr1LTFBdK7f","standard","1","63","LP","2.15079707022835","698.416","700.574","700.928","2.512","0.354","3","186",""
"64","R_2gCrqr1LTFBdK7f","standard","1","64","LP","13.0392072382594","701.934","714.982","715.344","13.41","0.362","3","189",""
"65","R_2gCrqr1LTFBdK7f","standard","1","65","LP","0.264713485566566","716.35","716.615","716.975","0.625","0.36","3","192",""
"66","R_2gCrqr1LTFBdK7f","standard","1","66","LP","1.25738905644119","717.982","719.245","719.631","1.649","0.386","3","195",""
"67","R_2gCrqr1LTFBdK7f","standard","1","67","LP","8.51632916846187","720.635","729.158","729.504","8.869","0.346","3","198",""
"68","R_2gCrqr1LTFBdK7f","standard","1","68","LP","0.661783713916415","730.511","731.174","731.495","0.984","0.321","3","201",""
"69","R_2gCrqr1LTFBdK7f","standard","1","69","LP","8.51632916846187","732.503","741.023","741.472","8.969","0.449","3","204",""
"70","R_2gCrqr1LTFBdK7f","standard","1","70","LP","3.49090909090909","742.479","745.975","746.328","3.849","0.353","3","207",""
"71","R_2gCrqr1LTFBdK7f","standard","1","71","LP","30","747.335","777.342","777.68","30.345","0.338","3","210",""
"72","R_2gCrqr1LTFBdK7f","standard","1","72","LP","1.25738905644119","778.687","779.95","780.271","1.584","0.321","3","213",""
"73","R_2gCrqr1LTFBdK7f","standard","1","73","LP","8.51632916846187","781.279","789.799","790.191","8.912","0.392","3","216",""
"74","R_2gCrqr1LTFBdK7f","standard","1","74","LP","13.0392072382594","791.199","804.246","804.624","13.425","0.378","3","219",""
"75","R_2gCrqr1LTFBdK7f","standard","1","75","LP","5.5010771219302","805.632","811.136","811.496","5.864","0.36","3","222",""
"76","R_2gCrqr1LTFBdK7f","standard","1","76","LP","0.661783713916415","812.504","813.168","813.584","1.08","0.416","3","225",""
"77","R_2gCrqr1LTFBdK7f","standard","1","77","LP","19.8235243429556","814.592","834.416","834.76","20.168","0.344","3","228",""
"78","R_2gCrqr1LTFBdK7f","standard","1","78","LP","0.264713485566566","835.768","836.04","836.391","0.623","0.351","3","231",""
"79","R_2gCrqr1LTFBdK7f","standard","1","79","LP","19.8235243429556","837.392","857.217","857.568","20.176","0.351","3","234",""
"80","R_2gCrqr1LTFBdK7f","standard","1","80","LP","30","858.577","888.584","888.919","30.342","0.335","3","237",""
"81","R_2gCrqr1LTFBdK7f","standard","1","81","LP","1.25738905644119","889.92","891.184","891.526","1.606","0.342","3","240",""
"82","R_2gCrqr1LTFBdK7f","standard","2","1","LP","2.15079707022835","0","2.155","2.511","2.511","0.356","3","243",NA
"83","R_2gCrqr1LTFBdK7f","standard","2","2","LP","0.661783713916415","3.515","4.179","4.583","1.068","0.404","3","246",NA
"84","R_2gCrqr1LTFBdK7f","standard","2","3","LP","1.25738905644119","5.587","6.851","7.232","1.645","0.381","3","249",NA
"85","R_2gCrqr1LTFBdK7f","standard","2","4","LP","1.25738905644119","8.232","9.491","9.847","1.615","0.356","3","252",NA
"86","R_2gCrqr1LTFBdK7f","standard","2","5","LP","13.0392072382594","10.851","NaN","20.648","9.797","NaN","0","252",NA
"87","R_2gCrqr1LTFBdK7f","standard","2","6","LP","0.264713485566566","21.651","21.923","22.263","0.612","0.34","3","255",NA
"88","R_2gCrqr1LTFBdK7f","standard","2","7","LP","13.0392072382594","23.267","36.307","36.68","13.413","0.373","3","258",NA
"89","R_2gCrqr1LTFBdK7f","standard","2","8","LP","3.49090909090909","37.683","41.179","41.647","3.964","0.468","3","261",NA
"90","R_2gCrqr1LTFBdK7f","standard","2","9","LP","13.0392072382594","42.651","55.692","56.056","13.405","0.364","3","264",NA
"91","R_2gCrqr1LTFBdK7f","standard","2","10","LP","0.661783713916415","57.06","57.723","58.135","1.075","0.412","3","267",NA
"92","R_2gCrqr1LTFBdK7f","standard","2","11","LP","0.264713485566566","59.139","59.405","59.799","0.66","0.394","3","270",NA
"93","R_2gCrqr1LTFBdK7f","standard","2","12","LP","1.25738905644119","60.803","62.067","62.439","1.636","0.372","3","273",NA
"94","R_2gCrqr1LTFBdK7f","standard","2","13","LP","0.661783713916415","63.443","64.109","64.559","1.116","0.45","3","276",NA
"95","R_2gCrqr1LTFBdK7f","standard","2","14","LP","3.49090909090909","65.563","69.06","69.375","3.812","0.315","3","279",NA
"96","R_2gCrqr1LTFBdK7f","standard","2","15","LP","30","70.38","NaN","85.151","14.771","NaN","0","279",NA
"97","R_2gCrqr1LTFBdK7f","standard","2","16","LP","0.264713485566566","86.155","86.427","86.726","0.571","0.299","3","282",NA
"98","R_2gCrqr1LTFBdK7f","standard","2","17","LP","2.15079707022835","87.731","89.884","90.222","2.491","0.338","3","285",NA
"99","R_2gCrqr1LTFBdK7f","standard","2","18","LP","19.8235243429556","91.228","NaN","105.711","14.483","NaN","0","285",NA
"100","R_2gCrqr1LTFBdK7f","standard","2","19","LP","3.49090909090909","106.715","110.212","110.574","3.859","0.362","3","288",NA
"101","R_2gCrqr1LTFBdK7f","standard","2","20","LP","0.264713485566566","111.58","111.852","112.198","0.618","0.346","3","291",NA
"102","R_2gCrqr1LTFBdK7f","standard","2","21","LP","13.0392072382594","113.204","NaN","126.054","12.85","NaN","0","291",NA
"103","R_2gCrqr1LTFBdK7f","standard","2","22","LP","5.5010771219302","127.059","132.564","132.91","5.851","0.346","3","294",NA
"104","R_2gCrqr1LTFBdK7f","standard","2","23","LP","2.15079707022835","133.91","136.068","136.502","2.592","0.434","3","297",NA
"105","R_2gCrqr1LTFBdK7f","standard","2","24","LP","0.264713485566566","137.508","137.78","138.173","0.665","0.393","3","300",NA
"106","R_2gCrqr1LTFBdK7f","standard","2","25","LP","19.8235243429556","139.18","NaN","153.277","14.097","NaN","0","300",NA
"107","R_2gCrqr1LTFBdK7f","standard","2","26","LP","13.0392072382594","154.285","NaN","166.295","12.01","NaN","0","300",NA
"108","R_2gCrqr1LTFBdK7f","standard","2","27","LP","3.49090909090909","167.3","170.797","171.174","3.874","0.377","3","303",NA
"109","R_2gCrqr1LTFBdK7f","standard","2","28","LP","5.5010771219302","172.181","177.685","178.103","5.922","0.418","3","306",NA
"110","R_2gCrqr1LTFBdK7f","standard","2","29","LP","0.264713485566566","179.111","179.381","179.766","0.655","0.385","3","309",NA
"111","R_2gCrqr1LTFBdK7f","standard","2","30","LP","1.25738905644119","180.773","182.037","182.39","1.617","0.353","3","312",NA
"112","R_2gCrqr1LTFBdK7f","standard","2","31","LP","3.49090909090909","183.397","186.892","187.238","3.841","0.346","3","315",NA
"113","R_2gCrqr1LTFBdK7f","standard","2","32","LP","0.264713485566566","188.244","188.51","188.91","0.666","0.4","3","318",NA
"114","R_2gCrqr1LTFBdK7f","standard","2","33","LP","2.15079707022835","189.917","192.069","192.486","2.569","0.417","3","321",NA
"115","R_2gCrqr1LTFBdK7f","standard","2","34","LP","0.661783713916415","193.493","194.157","194.542","1.049","0.385","3","324",NA
"116","R_2gCrqr1LTFBdK7f","standard","2","35","LP","19.8235243429556","195.549","NaN","205.718","10.169","NaN","0","324",NA
"117","R_2gCrqr1LTFBdK7f","standard","2","36","LP","19.8235243429556","206.724","NaN","219.294","12.57","NaN","0","324",NA
"118","R_2gCrqr1LTFBdK7f","standard","2","37","LP","8.51632916846187","220.301","228.821","229.133","8.832","0.312","3","327",NA
"119","R_2gCrqr1LTFBdK7f","standard","2","38","LP","3.49090909090909","230.14","233.637","233.974","3.834","0.337","3","330",NA
"120","R_2gCrqr1LTFBdK7f","standard","2","39","LP","13.0392072382594","234.981","NaN","246.093","11.112","NaN","0","330",NA
"121","R_2gCrqr1LTFBdK7f","standard","2","40","LP","19.8235243429556","247.101","NaN","259.029","11.928","NaN","0","330",NA
"122","R_2gCrqr1LTFBdK7f","standard","2","41","LP","19.8235243429556","260.037","NaN","273.341","13.304","NaN","0","330",NA
"123","R_2gCrqr1LTFBdK7f","standard","2","42","LP","19.8235243429556","274.349","NaN","286.718","12.369","NaN","0","330",NA
"124","R_2gCrqr1LTFBdK7f","standard","2","43","LP","5.5010771219302","287.726","293.229","293.621","5.895","0.392","3","333",NA
"125","R_2gCrqr1LTFBdK7f","standard","2","44","LP","3.49090909090909","294.623","298.118","298.478","3.855","0.36","3","336",NA
"126","R_2gCrqr1LTFBdK7f","standard","2","45","LP","13.0392072382594","299.486","312.526","312.861","13.375","0.335","3","339",NA
"127","R_2gCrqr1LTFBdK7f","standard","2","46","LP","2.15079707022835","313.87","316.021","316.412","2.542","0.391","3","342",NA
"128","R_2gCrqr1LTFBdK7f","standard","2","47","LP","0.661783713916415","317.413","318.077","318.532","1.119","0.455","3","345",NA
"129","R_2gCrqr1LTFBdK7f","standard","2","48","LP","1.25738905644119","319.534","320.798","321.156","1.622","0.358","3","348",NA
"130","R_2gCrqr1LTFBdK7f","standard","2","49","LP","1.25738905644119","322.158","323.419","323.781","1.623","0.362","3","351",NA
"131","R_2gCrqr1LTFBdK7f","standard","2","50","LP","8.51632916846187","324.79","333.312","333.684","8.894","0.372","3","354",NA
"132","R_2gCrqr1LTFBdK7f","standard","2","51","LP","19.8235243429556","334.687","NaN","350.629","15.942","NaN","0","354",NA
"133","R_2gCrqr1LTFBdK7f","standard","2","52","LP","8.51632916846187","351.631","360.15","360.549","8.918","0.399","3","357",NA
"134","R_2gCrqr1LTFBdK7f","standard","2","53","LP","8.51632916846187","361.55","370.071","370.421","8.871","0.35","3","360",NA
"135","R_2gCrqr1LTFBdK7f","standard","2","54","LP","1.25738905644119","371.423","372.687","373.076","1.653","0.389","3","363",NA
"136","R_2gCrqr1LTFBdK7f","standard","2","55","LP","8.51632916846187","374.079","382.598","382.957","8.878","0.359","3","366",NA
"137","R_2gCrqr1LTFBdK7f","standard","2","56","LP","3.49090909090909","383.958","387.455","387.948","3.99","0.493","3","369",NA
"138","R_2gCrqr1LTFBdK7f","standard","2","57","LP","1.25738905644119","388.951","390.208","390.62","1.669","0.412","3","372",NA
"139","R_2gCrqr1LTFBdK7f","standard","2","58","LP","0.264713485566566","391.622","391.895","392.3","0.678","0.405","3","375",NA
"140","R_2gCrqr1LTFBdK7f","standard","2","59","LP","30","393.303","NaN","408.964","15.661","NaN","0","375",NA
"141","R_2gCrqr1LTFBdK7f","standard","2","60","LP","19.8235243429556","409.967","NaN","423.412","13.445","NaN","0","375",NA
"142","R_2gCrqr1LTFBdK7f","standard","2","61","LP","5.5010771219302","424.415","429.919","430.34","5.925","0.421","3","378",NA
"143","R_2gCrqr1LTFBdK7f","standard","2","62","LP","3.49090909090909","431.343","434.839","435.164","3.821","0.325","3","381",NA
"144","R_2gCrqr1LTFBdK7f","standard","2","63","LP","0.264713485566566","436.167","436.439","436.844","0.677","0.405","3","384",NA
"145","R_2gCrqr1LTFBdK7f","standard","2","64","LP","0.661783713916415","437.847","438.512","438.947","1.1","0.435","3","387",NA
"146","R_2gCrqr1LTFBdK7f","standard","2","65","LP","30","439.951","NaN","455.333","15.382","NaN","0","387",NA
"147","R_2gCrqr1LTFBdK7f","standard","2","66","LP","30","456.335","NaN","470.604","14.269","NaN","0","387",NA
"148","R_2gCrqr1LTFBdK7f","standard","2","67","LP","8.51632916846187","471.608","480.128","480.476","8.868","0.348","3","390",NA
"149","R_2gCrqr1LTFBdK7f","standard","2","68","LP","2.15079707022835","481.48","483.632","483.972","2.492","0.34","3","393",NA
"150","R_2gCrqr1LTFBdK7f","standard","2","69","LP","2.15079707022835","484.976","487.128","487.492","2.516","0.364","3","396",NA
"151","R_2gCrqr1LTFBdK7f","standard","2","70","LP","19.8235243429556","488.496","NaN","499.044","10.548","NaN","0","396",NA
"152","R_2gCrqr1LTFBdK7f","standard","2","71","LP","30","500.048","NaN","514.092","14.044","NaN","0","396",NA
"153","R_2gCrqr1LTFBdK7f","standard","2","72","LP","5.5010771219302","515.096","520.6","520.939","5.843","0.339","3","399",NA
"154","R_2gCrqr1LTFBdK7f","standard","2","73","LP","1.25738905644119","521.944","523.208","523.555","1.611","0.347","3","402",NA
"155","R_2gCrqr1LTFBdK7f","standard","2","74","LP","5.5010771219302","524.56","530.064","530.396","5.836","0.332","3","405",NA
"156","R_2gCrqr1LTFBdK7f","standard","2","75","LP","13.0392072382594","531.4","NaN","543.459","12.059","NaN","0","405",NA
"157","R_2gCrqr1LTFBdK7f","standard","2","76","LP","13.0392072382594","544.464","557.512","557.875","13.411","0.363","3","408",NA
"158","R_2gCrqr1LTFBdK7f","standard","2","77","LP","30","558.88","NaN","570.418","11.538","NaN","0","408",NA
"159","R_2gCrqr1LTFBdK7f","standard","2","78","LP","3.49090909090909","571.425","574.921","575.275","3.85","0.354","3","411",NA
"160","R_2gCrqr1LTFBdK7f","standard","2","79","LP","30","576.281","NaN","589.556","13.275","NaN","0","411",NA
"161","R_2gCrqr1LTFBdK7f","standard","2","80","LP","0.661783713916415","590.562","591.226","591.627","1.065","0.401","3","414",NA
"162","R_2gCrqr1LTFBdK7f","standard","2","81","LP","5.5010771219302","592.634","598.137","598.555","5.921","0.418","3","417",NA
