"","subject_id","condition","n_block","n_trialIdx","f_timing_condition","n_scheduled_delay","n_trial_start_time","n_rewarded_time_fin","n_sell_time_fin","n_time_waited_fin","RT_fin","n_trial_earnings_fin","n_total_earnings_fin","keypress_times"
"1","R_2sZuv7hfguWqmQi","standard","1","1","HP","20","0.001","20.004","20.396","20.395","0.392","3","3",""
"2","R_2sZuv7hfguWqmQi","standard","1","2","HP","20","21.403","41.408","41.757","20.354","0.349","3","6",""
"3","R_2sZuv7hfguWqmQi","standard","1","3","HP","10","42.762","52.77","53.1","10.338","0.33","3","9",""
"4","R_2sZuv7hfguWqmQi","standard","1","4","HP","10","54.107","64.111","64.52","10.413","0.409","3","12",""
"5","R_2sZuv7hfguWqmQi","standard","1","5","HP","20","65.53","85.537","85.842","20.312","0.305","3","15",""
"6","R_2sZuv7hfguWqmQi","standard","1","6","HP","20","86.85","106.856","107.162","20.312","0.306","3","18",""
"7","R_2sZuv7hfguWqmQi","standard","1","7","HP","8","108.169","116.177","116.557","8.388","0.38","3","21",""
"8","R_2sZuv7hfguWqmQi","standard","1","8","HP","14","117.561","131.568","131.961","14.4","0.393","3","24",""
"9","R_2sZuv7hfguWqmQi","standard","1","9","HP","10","132.969","142.976","143.799","10.83","0.823","3","27",""
"10","R_2sZuv7hfguWqmQi","standard","1","10","HP","20","144.805","164.806","165.275","20.47","0.469","3","30",""
"11","R_2sZuv7hfguWqmQi","standard","1","11","HP","10","166.279","176.287","176.668","10.389","0.381","3","33",""
"12","R_2sZuv7hfguWqmQi","standard","1","12","HP","12","177.67","189.679","190.002","12.332","0.323","3","36",""
"13","R_2sZuv7hfguWqmQi","standard","1","13","HP","16","191.004","207.005","207.324","16.32","0.319","3","39",""
"14","R_2sZuv7hfguWqmQi","standard","1","14","HP","18","208.326","226.334","226.632","18.306","0.298","3","42",""
"15","R_2sZuv7hfguWqmQi","standard","1","15","HP","18","227.638","245.645","245.932","18.294","0.287","3","45",""
"16","R_2sZuv7hfguWqmQi","standard","1","16","HP","4","246.941","250.952","251.286","4.345","0.334","3","48",""
"17","R_2sZuv7hfguWqmQi","standard","1","17","HP","2","252.294","254.302","254.665","2.371","0.363","3","51",""
"18","R_2sZuv7hfguWqmQi","standard","1","18","HP","2","255.671","257.678","257.988","2.317","0.31","3","54",""
"19","R_2sZuv7hfguWqmQi","standard","1","19","HP","18","258.99","276.999","277.318","18.328","0.319","3","57",""
"20","R_2sZuv7hfguWqmQi","standard","1","20","HP","12","278.323","290.326","290.636","12.313","0.31","3","60",""
"21","R_2sZuv7hfguWqmQi","standard","1","21","HP","18","291.638","309.646","309.997","18.359","0.351","3","63",""
"22","R_2sZuv7hfguWqmQi","standard","1","22","HP","20","310.999","331.004","331.385","20.386","0.381","3","66",""
"23","R_2sZuv7hfguWqmQi","standard","1","23","HP","6","332.39","338.402","338.768","6.378","0.366","3","69",""
"24","R_2sZuv7hfguWqmQi","standard","1","24","HP","14","339.773","353.782","354.262","14.489","0.48","3","72",""
"25","R_2sZuv7hfguWqmQi","standard","1","25","HP","4","355.268","359.277","359.638","4.37","0.361","3","75",""
"26","R_2sZuv7hfguWqmQi","standard","1","26","HP","4","360.646","364.654","365.063","4.417","0.409","3","78",""
"27","R_2sZuv7hfguWqmQi","standard","1","27","HP","8","366.07","374.076","374.389","8.319","0.313","3","81",""
"28","R_2sZuv7hfguWqmQi","standard","1","28","HP","12","375.397","387.402","387.744","12.347","0.342","3","84",""
"29","R_2sZuv7hfguWqmQi","standard","1","29","HP","10","388.749","398.756","399.05","10.301","0.294","3","87",""
"30","R_2sZuv7hfguWqmQi","standard","1","30","HP","16","400.051","416.06","416.41","16.359","0.35","3","90",""
"31","R_2sZuv7hfguWqmQi","standard","1","31","HP","12","417.413","429.42","429.733","12.32","0.313","3","93",""
"32","R_2sZuv7hfguWqmQi","standard","1","32","HP","2","430.743","432.748","433.236","2.493","0.488","3","96",""
"33","R_2sZuv7hfguWqmQi","standard","1","33","HP","16","434.244","450.25","450.588","16.344","0.338","3","99",""
"34","R_2sZuv7hfguWqmQi","standard","1","34","HP","14","451.594","465.596","465.939","14.345","0.343","3","102",""
"35","R_2sZuv7hfguWqmQi","standard","1","35","HP","14","466.947","480.954","481.28","14.333","0.326","3","105",""
"36","R_2sZuv7hfguWqmQi","standard","1","36","HP","14","482.282","496.291","496.611","14.329","0.32","3","108",""
"37","R_2sZuv7hfguWqmQi","standard","1","37","HP","12","497.618","509.625","509.958","12.34","0.333","3","111",""
"38","R_2sZuv7hfguWqmQi","standard","1","38","HP","12","510.963","522.97","523.311","12.348","0.341","3","114",""
"39","R_2sZuv7hfguWqmQi","standard","1","39","HP","12","524.314","536.315","536.712","12.398","0.397","3","117",""
"40","R_2sZuv7hfguWqmQi","standard","1","40","HP","2","537.713","539.722","540.206","2.493","0.484","3","120",""
"41","R_2sZuv7hfguWqmQi","standard","1","41","HP","6","541.209","547.218","547.582","6.373","0.364","3","123",""
"42","R_2sZuv7hfguWqmQi","standard","1","42","HP","6","548.585","554.595","554.916","6.331","0.321","3","126",""
"43","R_2sZuv7hfguWqmQi","standard","1","43","HP","14","555.918","569.922","570.256","14.338","0.334","3","129",""
"44","R_2sZuv7hfguWqmQi","standard","1","44","HP","4","571.266","575.273","575.651","4.385","0.378","3","132",""
"45","R_2sZuv7hfguWqmQi","standard","1","45","HP","14","576.657","590.664","590.988","14.331","0.324","3","135",""
"46","R_2sZuv7hfguWqmQi","standard","1","46","HP","4","591.993","595.999","596.602","4.609","0.603","3","138",""
"47","R_2sZuv7hfguWqmQi","standard","1","47","HP","2","597.607","599.617","599.987","2.38","0.37","3","141",""
"48","R_2sZuv7hfguWqmQi","standard","1","48","HP","12","600.992","612.997","613.385","12.393","0.388","3","144",""
"49","R_2sZuv7hfguWqmQi","standard","1","49","HP","20","614.393","634.397","634.738","20.345","0.341","3","147",""
"50","R_2sZuv7hfguWqmQi","standard","1","50","HP","2","635.743","637.752","638.126","2.383","0.374","3","150",""
"51","R_2sZuv7hfguWqmQi","standard","1","51","HP","18","639.129","657.136","657.502","18.373","0.366","3","153",""
"52","R_2sZuv7hfguWqmQi","standard","1","52","HP","14","658.512","672.519","672.872","14.36","0.353","3","156",""
"53","R_2sZuv7hfguWqmQi","standard","1","53","HP","16","673.878","689.887","690.288","16.41","0.401","3","159",""
"54","R_2sZuv7hfguWqmQi","standard","1","54","HP","8","691.296","699.3","699.645","8.349","0.345","3","162",""
"55","R_2sZuv7hfguWqmQi","standard","1","55","HP","16","700.654","716.662","717.004","16.35","0.342","3","165",""
"56","R_2sZuv7hfguWqmQi","standard","1","56","HP","2","718.008","720.015","720.376","2.368","0.361","3","168",""
"57","R_2sZuv7hfguWqmQi","standard","1","57","HP","18","721.382","739.39","739.737","18.355","0.347","3","171",""
"58","R_2sZuv7hfguWqmQi","standard","1","58","HP","2","740.741","742.75","743.135","2.394","0.385","3","174",""
"59","R_2sZuv7hfguWqmQi","standard","1","59","HP","18","744.141","762.149","762.57","18.429","0.421","3","177",""
"60","R_2sZuv7hfguWqmQi","standard","1","60","HP","12","763.574","775.581","775.905","12.331","0.324","3","180",""
"61","R_2sZuv7hfguWqmQi","standard","1","61","HP","20","776.909","796.916","797.288","20.379","0.372","3","183",""
"62","R_2sZuv7hfguWqmQi","standard","1","62","HP","8","798.294","806.298","806.707","8.413","0.409","3","186",""
"63","R_2sZuv7hfguWqmQi","standard","1","63","HP","14","807.713","821.716","822.058","14.345","0.342","3","189",""
"64","R_2sZuv7hfguWqmQi","standard","1","64","HP","4","823.06","827.067","827.436","4.376","0.369","3","192",""
"65","R_2sZuv7hfguWqmQi","standard","1","65","HP","8","828.444","836.452","836.802","8.358","0.35","3","195",""
"66","R_2sZuv7hfguWqmQi","standard","1","66","HP","20","837.812","857.82","858.164","20.352","0.344","3","198",""
"67","R_2sZuv7hfguWqmQi","standard","1","67","HP","16","859.171","875.175","875.515","16.344","0.34","3","201",""
"68","R_2sZuv7hfguWqmQi","standard","1","68","HP","14","876.524","890.53","890.893","14.369","0.363","3","204",""
"69","R_2sZuv7hfguWqmQi","standard","1","69","HP","6","891.897","897.901","898.237","6.34","0.336","3","207",""
"70","R_2sZuv7hfguWqmQi","standard","2","1","LP","3.49090909090909","0","NaN","2.448","2.448","NaN","0","207",NA
"71","R_2sZuv7hfguWqmQi","standard","2","2","LP","2.15079707022835","3.456","5.609","6.368","2.912","0.759","3","210",NA
"72","R_2sZuv7hfguWqmQi","standard","2","3","LP","0.264713485566566","7.376","7.648","8.085","0.709","0.437","3","213",NA
"73","R_2sZuv7hfguWqmQi","standard","2","4","LP","0.661783713916415","9.087","9.752","10.154","1.067","0.402","3","216",NA
"74","R_2sZuv7hfguWqmQi","standard","2","5","LP","3.49090909090909","11.16","NaN","14.192","3.032","NaN","0","216",NA
"75","R_2sZuv7hfguWqmQi","standard","2","6","LP","8.51632916846187","15.2","23.717","24.134","8.934","0.417","3","219",NA
"76","R_2sZuv7hfguWqmQi","standard","2","7","LP","30","25.143","NaN","27.916","2.773","NaN","0","219",NA
"77","R_2sZuv7hfguWqmQi","standard","2","8","LP","19.8235243429556","28.918","NaN","33.358","4.44","NaN","0","219",NA
"78","R_2sZuv7hfguWqmQi","standard","2","9","LP","3.49090909090909","34.367","37.863","38.248","3.881","0.385","3","222",NA
"79","R_2sZuv7hfguWqmQi","standard","2","10","LP","3.49090909090909","39.255","42.751","43.075","3.82","0.324","3","225",NA
"80","R_2sZuv7hfguWqmQi","standard","2","11","LP","5.5010771219302","44.079","49.582","49.962","5.883","0.38","3","228",NA
"81","R_2sZuv7hfguWqmQi","standard","2","12","LP","0.661783713916415","50.967","51.631","52.055","1.088","0.424","3","231",NA
"82","R_2sZuv7hfguWqmQi","standard","2","13","LP","8.51632916846187","53.063","61.583","62.119","9.056","0.536","3","234",NA
"83","R_2sZuv7hfguWqmQi","standard","2","14","LP","5.5010771219302","63.126","NaN","64.866","1.74","NaN","0","234",NA
"84","R_2sZuv7hfguWqmQi","standard","2","15","LP","0.264713485566566","65.869","66.142","66.543","0.674","0.401","3","237",NA
"85","R_2sZuv7hfguWqmQi","standard","2","16","LP","30","67.55","NaN","78.89","11.34","NaN","0","237",NA
"86","R_2sZuv7hfguWqmQi","standard","2","17","LP","2.15079707022835","79.894","82.046","82.366","2.472","0.32","3","240",NA
"87","R_2sZuv7hfguWqmQi","standard","2","18","LP","0.264713485566566","83.373","83.648","84.042","0.669","0.394","3","243",NA
"88","R_2sZuv7hfguWqmQi","standard","2","19","LP","1.25738905644119","85.045","86.307","86.631","1.586","0.324","3","246",NA
"89","R_2sZuv7hfguWqmQi","standard","2","20","LP","3.49090909090909","87.638","91.134","91.466","3.828","0.332","3","249",NA
"90","R_2sZuv7hfguWqmQi","standard","2","21","LP","8.51632916846187","92.47","100.99","101.369","8.899","0.379","3","252",NA
"91","R_2sZuv7hfguWqmQi","standard","2","22","LP","13.0392072382594","102.374","115.422","115.958","13.584","0.536","3","255",NA
"92","R_2sZuv7hfguWqmQi","standard","2","23","LP","0.661783713916415","116.964","117.629","118.089","1.125","0.46","3","258",NA
"93","R_2sZuv7hfguWqmQi","standard","2","24","LP","1.25738905644119","119.094","120.357","120.702","1.608","0.345","3","261",NA
"94","R_2sZuv7hfguWqmQi","standard","2","25","LP","8.51632916846187","121.707","NaN","126.528","4.821","NaN","0","261",NA
"95","R_2sZuv7hfguWqmQi","standard","2","26","LP","13.0392072382594","127.533","140.581","140.948","13.415","0.367","3","264",NA
"96","R_2sZuv7hfguWqmQi","standard","2","27","LP","8.51632916846187","141.956","NaN","146.73","4.774","NaN","0","264",NA
"97","R_2sZuv7hfguWqmQi","standard","2","28","LP","0.264713485566566","147.732","147.997","148.407","0.675","0.41","3","267",NA
"98","R_2sZuv7hfguWqmQi","standard","2","29","LP","19.8235243429556","149.413","169.244","169.608","20.195","0.364","3","270",NA
"99","R_2sZuv7hfguWqmQi","standard","2","30","LP","30","170.609","NaN","173.104","2.495","NaN","0","270",NA
"100","R_2sZuv7hfguWqmQi","standard","2","31","LP","1.25738905644119","174.105","175.364","175.698","1.593","0.334","3","273",NA
"101","R_2sZuv7hfguWqmQi","standard","2","32","LP","3.49090909090909","176.7","180.197","180.576","3.876","0.379","3","276",NA
"102","R_2sZuv7hfguWqmQi","standard","2","33","LP","19.8235243429556","181.58","NaN","185.241","3.661","NaN","0","276",NA
"103","R_2sZuv7hfguWqmQi","standard","2","34","LP","19.8235243429556","186.243","206.075","206.662","20.419","0.587","3","279",NA
"104","R_2sZuv7hfguWqmQi","standard","2","35","LP","5.5010771219302","207.667","NaN","211.396","3.729","NaN","0","279",NA
"105","R_2sZuv7hfguWqmQi","standard","2","36","LP","5.5010771219302","212.405","NaN","217.571","5.166","NaN","0","279",NA
"106","R_2sZuv7hfguWqmQi","standard","2","37","LP","13.0392072382594","218.58","231.627","231.973","13.393","0.346","3","282",NA
"107","R_2sZuv7hfguWqmQi","standard","2","38","LP","0.661783713916415","232.979","233.643","234.026","1.047","0.383","3","285",NA
"108","R_2sZuv7hfguWqmQi","standard","2","39","LP","13.0392072382594","235.035","NaN","239.01","3.975","NaN","0","285",NA
"109","R_2sZuv7hfguWqmQi","standard","2","40","LP","1.25738905644119","240.02","241.283","241.655","1.635","0.372","3","288",NA
"110","R_2sZuv7hfguWqmQi","standard","2","41","LP","13.0392072382594","242.659","NaN","246.709","4.05","NaN","0","288",NA
"111","R_2sZuv7hfguWqmQi","standard","2","42","LP","0.264713485566566","247.716","247.987","248.399","0.683","0.412","3","291",NA
"112","R_2sZuv7hfguWqmQi","standard","2","43","LP","0.264713485566566","249.401","249.666","250.107","0.706","0.441","3","294",NA
"113","R_2sZuv7hfguWqmQi","standard","2","44","LP","19.8235243429556","251.114","NaN","253.882","2.768","NaN","0","294",NA
"114","R_2sZuv7hfguWqmQi","standard","2","45","LP","3.49090909090909","254.891","258.387","258.786","3.895","0.399","3","297",NA
"115","R_2sZuv7hfguWqmQi","standard","2","46","LP","5.5010771219302","259.787","265.291","265.7","5.913","0.409","3","300",NA
"116","R_2sZuv7hfguWqmQi","standard","2","47","LP","0.661783713916415","266.703","267.37","267.899","1.196","0.529","3","303",NA
"117","R_2sZuv7hfguWqmQi","standard","2","48","LP","1.25738905644119","268.904","270.17","270.555","1.651","0.385","3","306",NA
"118","R_2sZuv7hfguWqmQi","standard","2","49","LP","3.49090909090909","271.561","275.059","275.478","3.917","0.419","3","309",NA
"119","R_2sZuv7hfguWqmQi","standard","2","50","LP","0.264713485566566","276.482","276.749","277.137","0.655","0.388","3","312",NA
"120","R_2sZuv7hfguWqmQi","standard","2","51","LP","30","278.147","308.154","308.608","30.461","0.454","3","315",NA
"121","R_2sZuv7hfguWqmQi","standard","2","52","LP","1.25738905644119","309.609","310.873","311.202","1.593","0.329","3","318",NA
"122","R_2sZuv7hfguWqmQi","standard","2","53","LP","8.51632916846187","312.206","320.73","321.113","8.907","0.383","3","321",NA
"123","R_2sZuv7hfguWqmQi","standard","2","54","LP","3.49090909090909","322.117","325.608","326.082","3.965","0.474","3","324",NA
"124","R_2sZuv7hfguWqmQi","standard","2","55","LP","3.49090909090909","327.09","330.585","330.949","3.859","0.364","3","327",NA
"125","R_2sZuv7hfguWqmQi","standard","2","56","LP","19.8235243429556","331.954","NaN","342.948","10.994","NaN","0","327",NA
"126","R_2sZuv7hfguWqmQi","standard","2","57","LP","5.5010771219302","343.953","349.457","349.982","6.029","0.525","3","330",NA
"127","R_2sZuv7hfguWqmQi","standard","2","58","LP","30","350.984","NaN","368.076","17.092","NaN","0","330",NA
"128","R_2sZuv7hfguWqmQi","standard","2","59","LP","3.49090909090909","369.081","372.575","373.106","4.025","0.531","3","333",NA
"129","R_2sZuv7hfguWqmQi","standard","2","60","LP","30","374.115","NaN","382.098","7.983","NaN","0","333",NA
"130","R_2sZuv7hfguWqmQi","standard","2","61","LP","8.51632916846187","383.099","391.619","392.092","8.993","0.473","3","336",NA
"131","R_2sZuv7hfguWqmQi","standard","2","62","LP","5.5010771219302","393.096","398.601",NA,"6.514",NA,"0","336",NA
"132","R_2sZuv7hfguWqmQi","standard","2","63","LP","3.49090909090909","400.616","404.113",NA,"4.505",NA,"0","336",NA
"133","R_2sZuv7hfguWqmQi","standard","2","64","LP","3.49090909090909","406.129","NaN","407.334","1.205","NaN","0","336",NA
"134","R_2sZuv7hfguWqmQi","standard","2","65","LP","13.0392072382594","408.336","NaN","415.945","7.609","NaN","0","336",NA
"135","R_2sZuv7hfguWqmQi","standard","2","66","LP","1.25738905644119","416.951","418.216","418.555","1.604","0.339","3","339",NA
"136","R_2sZuv7hfguWqmQi","standard","2","67","LP","5.5010771219302","419.561","425.064","425.4","5.839","0.336","3","342",NA
"137","R_2sZuv7hfguWqmQi","standard","2","68","LP","30","426.408","NaN","427.204","0.796","NaN","0","342",NA
"138","R_2sZuv7hfguWqmQi","standard","2","69","LP","30","428.208","NaN","433.923","5.715","NaN","0","342",NA
"139","R_2sZuv7hfguWqmQi","standard","2","70","LP","19.8235243429556","434.928","NaN","442.388","7.46","NaN","0","342",NA
"140","R_2sZuv7hfguWqmQi","standard","2","71","LP","19.8235243429556","443.392","NaN","449.531","6.139","NaN","0","342",NA
"141","R_2sZuv7hfguWqmQi","standard","2","72","LP","19.8235243429556","450.535","NaN","460.253","9.718","NaN","0","342",NA
"142","R_2sZuv7hfguWqmQi","standard","2","73","LP","13.0392072382594","461.263","NaN","470.849","9.586","NaN","0","342",NA
"143","R_2sZuv7hfguWqmQi","standard","2","74","LP","0.661783713916415","471.857","472.527","472.934","1.077","0.407","3","345",NA
"144","R_2sZuv7hfguWqmQi","standard","2","75","LP","13.0392072382594","473.942","NaN","478.922","4.98","NaN","0","345",NA
"145","R_2sZuv7hfguWqmQi","standard","2","76","LP","19.8235243429556","479.925","NaN","494.282","14.357","NaN","0","345",NA
"146","R_2sZuv7hfguWqmQi","standard","2","77","LP","30","495.287","525.287","525.686","30.399","0.399","3","348",NA
"147","R_2sZuv7hfguWqmQi","standard","2","78","LP","3.49090909090909","526.693","530.189","530.586","3.893","0.397","3","351",NA
"148","R_2sZuv7hfguWqmQi","standard","2","79","LP","3.49090909090909","531.589","535.085","535.459","3.87","0.374","3","354",NA
"149","R_2sZuv7hfguWqmQi","standard","2","80","LP","0.264713485566566","536.469","536.737","537.148","0.679","0.411","3","357",NA
"150","R_2sZuv7hfguWqmQi","standard","2","81","LP","13.0392072382594","538.157","NaN","545.624","7.467","NaN","0","357",NA
"151","R_2sZuv7hfguWqmQi","standard","2","82","LP","30","546.627","NaN","552.801","6.174","NaN","0","357",NA
"152","R_2sZuv7hfguWqmQi","standard","2","83","LP","13.0392072382594","553.805","566.852","567.236","13.431","0.384","3","360",NA
"153","R_2sZuv7hfguWqmQi","standard","2","84","LP","8.51632916846187","568.244","NaN","575.237","6.993","NaN","0","360",NA
"154","R_2sZuv7hfguWqmQi","standard","2","85","LP","5.5010771219302","576.245","581.755","582.203","5.958","0.448","3","363",NA
"155","R_2sZuv7hfguWqmQi","standard","2","86","LP","1.25738905644119","583.212","584.474","585.016","1.804","0.542","3","366",NA
"156","R_2sZuv7hfguWqmQi","standard","2","87","LP","2.15079707022835","586.02","588.176","588.575","2.555","0.399","3","369",NA
"157","R_2sZuv7hfguWqmQi","standard","2","88","LP","1.25738905644119","589.576","590.836","591.232","1.656","0.396","3","372",NA
"158","R_2sZuv7hfguWqmQi","standard","2","89","LP","2.15079707022835","592.236","594.39","594.783","2.547","0.393","3","375",NA
"159","R_2sZuv7hfguWqmQi","standard","2","90","LP","0.264713485566566","595.787","596.06","596.548","0.761","0.488","3","378",NA
"160","R_2sZuv7hfguWqmQi","standard","2","91","LP","0.264713485566566","597.556","597.826","598.223","0.667","0.397","3","381",NA
