"","subject_id","condition","n_block","n_trialIdx","f_timing_condition","n_scheduled_delay","n_trial_start_time","n_rewarded_time_fin","n_sell_time_fin","n_time_waited_fin","RT_fin","n_trial_earnings_fin","n_total_earnings_fin","keypress_times"
"1","R_2tlfygPA1JAVJ4g","standard","1","1","LP","0.661783713916415","0.001","0.669","1.211","1.21","0.542","3","3",""
"2","R_2tlfygPA1JAVJ4g","standard","1","2","LP","8.51632916846187","2.213","10.732","11.15","8.937","0.418","3","6",""
"3","R_2tlfygPA1JAVJ4g","standard","1","3","LP","30","12.157","42.165","42.525","30.368","0.36","3","9",""
"4","R_2tlfygPA1JAVJ4g","standard","1","4","LP","3.49090909090909","43.534","47.029","47.563","4.029","0.534","3","12",""
"5","R_2tlfygPA1JAVJ4g","standard","1","5","LP","1.25738905644119","48.564","49.828","50.187","1.623","0.359","3","15",""
"6","R_2tlfygPA1JAVJ4g","standard","1","6","LP","30","51.189","81.197","81.581","30.392","0.384","3","18",""
"7","R_2tlfygPA1JAVJ4g","standard","1","7","LP","1.25738905644119","82.59","83.853","84.539","1.949","0.686","3","21",""
"8","R_2tlfygPA1JAVJ4g","standard","1","8","LP","13.0392072382594","85.542","98.581","98.94","13.398","0.359","3","24",""
"9","R_2tlfygPA1JAVJ4g","standard","1","9","LP","19.8235243429556","99.949","119.773","120.092","20.143","0.319","3","27",""
"10","R_2tlfygPA1JAVJ4g","standard","1","10","LP","3.49090909090909","121.101","124.598","125.29","4.189","0.692","3","30",""
"11","R_2tlfygPA1JAVJ4g","standard","1","11","LP","3.49090909090909","126.293","129.789","130.124","3.831","0.335","3","33",""
"12","R_2tlfygPA1JAVJ4g","standard","1","12","LP","30","131.125","161.134","161.435","30.31","0.301","3","36",""
"13","R_2tlfygPA1JAVJ4g","standard","1","13","LP","2.15079707022835","162.438","164.589","165.258","2.82","0.669","3","39",""
"14","R_2tlfygPA1JAVJ4g","standard","1","14","LP","2.15079707022835","166.261","168.413","169.034","2.773","0.621","3","42",""
"15","R_2tlfygPA1JAVJ4g","standard","1","15","LP","0.264713485566566","170.035","170.301","170.714","0.679","0.413","3","45",""
"16","R_2tlfygPA1JAVJ4g","standard","1","16","LP","0.264713485566566","171.717","171.989","172.348","0.631","0.359","3","48",""
"17","R_2tlfygPA1JAVJ4g","standard","1","17","LP","5.5010771219302","173.35","178.854","179.258","5.908","0.404","3","51",""
"18","R_2tlfygPA1JAVJ4g","standard","1","18","LP","5.5010771219302","180.262","185.765","186.188","5.926","0.423","3","54",""
"19","R_2tlfygPA1JAVJ4g","standard","1","19","LP","1.25738905644119","187.189","188.453","188.778","1.589","0.325","3","57",""
"20","R_2tlfygPA1JAVJ4g","standard","1","20","LP","3.49090909090909","189.781","193.278","193.578","3.797","0.3","3","60",""
"21","R_2tlfygPA1JAVJ4g","standard","1","21","LP","5.5010771219302","194.582","200.086","200.524","5.942","0.438","3","63",""
"22","R_2tlfygPA1JAVJ4g","standard","1","22","LP","30","201.526","231.534","231.868","30.342","0.334","3","66",""
"23","R_2tlfygPA1JAVJ4g","standard","1","23","LP","30","232.87","262.878","263.244","30.374","0.366","3","69",""
"24","R_2tlfygPA1JAVJ4g","standard","1","24","LP","30","264.246","294.254","294.555","30.309","0.301","3","72",""
"25","R_2tlfygPA1JAVJ4g","standard","1","25","LP","1.25738905644119","295.558","296.822","297.177","1.619","0.355","3","75",""
"26","R_2tlfygPA1JAVJ4g","standard","1","26","LP","1.25738905644119","298.183","299.447","299.833","1.65","0.386","3","78",""
"27","R_2tlfygPA1JAVJ4g","standard","1","27","LP","8.51632916846187","300.838","309.358","309.787","8.949","0.429","3","81",""
"28","R_2tlfygPA1JAVJ4g","standard","1","28","LP","0.661783713916415","310.791","311.455","311.929","1.138","0.474","3","84",""
"29","R_2tlfygPA1JAVJ4g","standard","1","29","LP","30","312.93","342.934","343.323","30.393","0.389","3","87",""
"30","R_2tlfygPA1JAVJ4g","standard","1","30","LP","1.25738905644119","344.326","345.591","345.913","1.587","0.322","3","90",""
"31","R_2tlfygPA1JAVJ4g","standard","1","31","LP","1.25738905644119","346.918","348.182","348.553","1.635","0.371","3","93",""
"32","R_2tlfygPA1JAVJ4g","standard","1","32","LP","1.25738905644119","349.559","350.823","351.145","1.586","0.322","3","96",""
"33","R_2tlfygPA1JAVJ4g","standard","1","33","LP","13.0392072382594","352.151","365.198","365.562","13.411","0.364","3","99",""
"34","R_2tlfygPA1JAVJ4g","standard","1","34","LP","13.0392072382594","366.567","379.607","380.266","13.699","0.659","3","102",""
"35","R_2tlfygPA1JAVJ4g","standard","1","35","LP","8.51632916846187","381.271","389.791","390.201","8.93","0.41","3","105",""
"36","R_2tlfygPA1JAVJ4g","standard","1","36","LP","30","391.207","421.208","421.531","30.324","0.323","3","108",""
"37","R_2tlfygPA1JAVJ4g","standard","1","37","LP","2.15079707022835","422.535","424.687","425.224","2.689","0.537","3","111",""
"38","R_2tlfygPA1JAVJ4g","standard","1","38","LP","2.15079707022835","426.231","428.383","428.856","2.625","0.473","3","114",""
"39","R_2tlfygPA1JAVJ4g","standard","1","39","LP","8.51632916846187","429.863","438.383","438.762","8.899","0.379","3","117",""
"40","R_2tlfygPA1JAVJ4g","standard","1","40","LP","19.8235243429556","439.767","459.591","459.978","20.211","0.387","3","120",""
"41","R_2tlfygPA1JAVJ4g","standard","1","41","LP","3.49090909090909","460.983","464.479","464.888","3.905","0.409","3","123",""
"42","R_2tlfygPA1JAVJ4g","standard","1","42","LP","19.8235243429556","465.895","485.727","486.152","20.257","0.425","3","126",""
"43","R_2tlfygPA1JAVJ4g","standard","1","43","LP","8.51632916846187","487.159","495.679","496.186","9.027","0.507","3","129",""
"44","R_2tlfygPA1JAVJ4g","standard","1","44","LP","2.15079707022835","497.191","499.343","499.784","2.593","0.441","3","132",""
"45","R_2tlfygPA1JAVJ4g","standard","1","45","LP","2.15079707022835","500.791","502.943","503.384","2.593","0.441","3","135",""
"46","R_2tlfygPA1JAVJ4g","standard","1","46","LP","8.51632916846187","504.392","512.914","513.401","9.009","0.487","3","138",""
"47","R_2tlfygPA1JAVJ4g","standard","1","47","LP","19.8235243429556","514.407","534.231","534.585","20.178","0.354","3","141",""
"48","R_2tlfygPA1JAVJ4g","standard","1","48","LP","0.264713485566566","535.591","535.863","536.568","0.977","0.705","3","144",""
"49","R_2tlfygPA1JAVJ4g","standard","1","49","LP","19.8235243429556","537.576","557.408","557.784","20.208","0.376","3","144","15282"
"50","R_2tlfygPA1JAVJ4g","standard","1","50","LP","13.0392072382594","558.792","571.836","572.25","13.458","0.414","3","147",""
"51","R_2tlfygPA1JAVJ4g","standard","1","51","LP","19.8235243429556","573.256","593.08","593.48","20.224","0.4","3","150",""
"52","R_2tlfygPA1JAVJ4g","standard","1","52","LP","8.51632916846187","594.488","603.008","603.463","8.975","0.455","3","153",""
"53","R_2tlfygPA1JAVJ4g","standard","1","53","LP","30","604.464","634.471","634.809","30.345","0.338","3","156",""
"54","R_2tlfygPA1JAVJ4g","standard","1","54","LP","8.51632916846187","635.809","644.328","644.742","8.933","0.414","3","159",""
"55","R_2tlfygPA1JAVJ4g","standard","1","55","LP","30","645.744","675.749","676.184","30.44","0.435","3","162",""
"56","R_2tlfygPA1JAVJ4g","standard","1","56","LP","0.264713485566566","677.192","677.464","677.99","0.798","0.526","3","165",""
"57","R_2tlfygPA1JAVJ4g","standard","1","57","LP","2.15079707022835","678.992","681.144","681.574","2.582","0.43","3","168",""
"58","R_2tlfygPA1JAVJ4g","standard","1","58","LP","2.15079707022835","682.576","684.728","685.158","2.582","0.43","3","171",""
"59","R_2tlfygPA1JAVJ4g","standard","1","59","LP","1.25738905644119","686.161","687.424","687.832","1.671","0.408","3","174",""
"60","R_2tlfygPA1JAVJ4g","standard","1","60","LP","13.0392072382594","688.84","701.88","702.376","13.536","0.496","3","177",""
"61","R_2tlfygPA1JAVJ4g","standard","1","61","LP","2.15079707022835","703.376","705.528","706.23","2.854","0.702","3","180",""
"62","R_2tlfygPA1JAVJ4g","standard","1","62","LP","1.25738905644119","707.231","708.496","708.998","1.767","0.502","3","183",""
"63","R_2tlfygPA1JAVJ4g","standard","1","63","LP","3.49090909090909","710.002","713.496","713.912","3.91","0.416","3","186",""
"64","R_2tlfygPA1JAVJ4g","standard","1","64","LP","0.264713485566566","714.914","715.184","715.574","0.66","0.39","3","189",""
"65","R_2tlfygPA1JAVJ4g","standard","1","65","LP","5.5010771219302","716.576","722.08","722.55","5.974","0.47","3","192",""
"66","R_2tlfygPA1JAVJ4g","standard","1","66","LP","5.5010771219302","723.552","729.056","729.464","5.912","0.408","3","195",""
"67","R_2tlfygPA1JAVJ4g","standard","1","67","LP","2.15079707022835","730.472","732.625","733.03","2.558","0.405","3","198",""
"68","R_2tlfygPA1JAVJ4g","standard","1","68","LP","13.0392072382594","734.031","747.072","747.448","13.417","0.376","3","201",""
"69","R_2tlfygPA1JAVJ4g","standard","1","69","LP","19.8235243429556","748.457","768.281","768.696","20.239","0.415","3","204",""
"70","R_2tlfygPA1JAVJ4g","standard","1","70","LP","13.0392072382594","769.697","782.745","783.143","13.446","0.398","3","207",""
"71","R_2tlfygPA1JAVJ4g","standard","1","71","LP","2.15079707022835","784.146","786.297","786.758","2.612","0.461","3","210",""
"72","R_2tlfygPA1JAVJ4g","standard","1","72","LP","0.264713485566566","787.761","788.032","788.517","0.756","0.485","3","213",""
"73","R_2tlfygPA1JAVJ4g","standard","1","73","LP","13.0392072382594","789.521","802.561","802.936","13.415","0.375","3","216",""
"74","R_2tlfygPA1JAVJ4g","standard","1","74","LP","8.51632916846187","803.938","812.457","812.854","8.916","0.397","3","219",""
"75","R_2tlfygPA1JAVJ4g","standard","1","75","LP","13.0392072382594","813.857","826.905","827.527","13.67","0.622","3","222",""
"76","R_2tlfygPA1JAVJ4g","standard","1","76","LP","19.8235243429556","828.529","848.361","848.711","20.182","0.35","3","225",""
"77","R_2tlfygPA1JAVJ4g","standard","1","77","LP","1.25738905644119","849.713","850.977","851.494","1.781","0.517","3","228",""
"78","R_2tlfygPA1JAVJ4g","standard","1","78","LP","0.264713485566566","852.498","852.769","853.429","0.931","0.66","3","231",""
"79","R_2tlfygPA1JAVJ4g","standard","1","79","LP","3.49090909090909","854.434","857.93","858.421","3.987","0.491","3","234",""
"80","R_2tlfygPA1JAVJ4g","standard","1","80","LP","0.264713485566566","859.426","859.698","860.279","0.853","0.581","3","237",""
"81","R_2tlfygPA1JAVJ4g","standard","1","81","LP","2.15079707022835","861.282","863.433","863.829","2.547","0.396","3","240",""
"82","R_2tlfygPA1JAVJ4g","standard","1","82","LP","0.661783713916415","864.833","865.497","865.845","1.012","0.348","3","243",""
"83","R_2tlfygPA1JAVJ4g","standard","1","83","LP","2.15079707022835","866.849","869.001","869.349","2.5","0.348","3","246",""
"84","R_2tlfygPA1JAVJ4g","standard","1","84","LP","0.264713485566566","870.353","870.625","871.063","0.71","0.438","3","249",""
"85","R_2tlfygPA1JAVJ4g","standard","1","85","LP","19.8235243429556","872.065","891.889","892.327","20.262","0.438","3","252",""
"86","R_2tlfygPA1JAVJ4g","standard","1","86","LP","0.661783713916415","893.33","893.999","894.437","1.107","0.438","3","255",""
"87","R_2tlfygPA1JAVJ4g","standard","1","87","LP","1.25738905644119","895.442","896.706","897.541","2.099","0.835","3","258",""
"88","R_2tlfygPA1JAVJ4g","standard","2","1","LP","8.51632916846187","0","NaN","2.308","2.308","NaN","0","258",NA
"89","R_2tlfygPA1JAVJ4g","standard","2","2","LP","30","3.311","NaN","8.774","5.463","NaN","0","258",NA
"90","R_2tlfygPA1JAVJ4g","standard","2","3","LP","0.264713485566566","9.78","10.052","10.681","0.901","0.629","3","261",NA
"91","R_2tlfygPA1JAVJ4g","standard","2","4","LP","2.15079707022835","11.684","13.837","14.536","2.852","0.699","3","264",NA
"92","R_2tlfygPA1JAVJ4g","standard","2","5","LP","3.49090909090909","15.54","NaN","16.216","0.676","NaN","0","264",NA
"93","R_2tlfygPA1JAVJ4g","standard","2","6","LP","30","17.219","47.226","47.514","30.295","0.288","3","267",NA
"94","R_2tlfygPA1JAVJ4g","standard","2","7","LP","13.0392072382594","48.516","61.564","61.912","13.396","0.348","3","270",NA
"95","R_2tlfygPA1JAVJ4g","standard","2","8","LP","1.25738905644119","62.915","64.185","64.696","1.781","0.511","3","273",NA
"96","R_2tlfygPA1JAVJ4g","standard","2","9","LP","5.5010771219302","65.7","71.204","71.56","5.86","0.356","3","276",NA
"97","R_2tlfygPA1JAVJ4g","standard","2","10","LP","2.15079707022835","72.565","74.717","75.049","2.484","0.332","3","279",NA
"98","R_2tlfygPA1JAVJ4g","standard","2","11","LP","13.0392072382594","76.051","89.094","89.465","13.414","0.371","3","282",NA
"99","R_2tlfygPA1JAVJ4g","standard","2","12","LP","30","90.473","120.482","120.745","30.272","0.263","3","285",NA
"100","R_2tlfygPA1JAVJ4g","standard","2","13","LP","1.25738905644119","121.747","123.012","123.575","1.828","0.563","3","288",NA
"101","R_2tlfygPA1JAVJ4g","standard","2","14","LP","0.661783713916415","124.582","125.251","125.575","0.993","0.324","3","291",NA
"102","R_2tlfygPA1JAVJ4g","standard","2","15","LP","30","126.582","156.592","156.937","30.355","0.345","3","294",NA
"103","R_2tlfygPA1JAVJ4g","standard","2","16","LP","2.15079707022835","157.94","160.092","160.455","2.515","0.363","3","297",NA
"104","R_2tlfygPA1JAVJ4g","standard","2","17","LP","13.0392072382594","161.46","174.508","174.873","13.413","0.365","3","300",NA
"105","R_2tlfygPA1JAVJ4g","standard","2","18","LP","19.8235243429556","175.877","195.717","196.088","20.211","0.371","3","303",NA
"106","R_2tlfygPA1JAVJ4g","standard","2","19","LP","2.15079707022835","197.092","199.246","199.703","2.611","0.457","3","306",NA
"107","R_2tlfygPA1JAVJ4g","standard","2","20","LP","2.15079707022835","200.717","202.868","203.382","2.665","0.514","3","309",NA
"108","R_2tlfygPA1JAVJ4g","standard","2","21","LP","0.264713485566566","204.396","204.676","205.142","0.746","0.466","3","312",NA
"109","R_2tlfygPA1JAVJ4g","standard","2","22","LP","0.264713485566566","206.148","206.413","206.76","0.612","0.347","3","315",NA
"110","R_2tlfygPA1JAVJ4g","standard","2","23","LP","8.51632916846187","207.764","216.293",NA,"9.543",NA,"0","315",NA
"111","R_2tlfygPA1JAVJ4g","standard","2","24","LP","8.51632916846187","218.316","226.837","227.318","9.002","0.481","3","318",NA
"112","R_2tlfygPA1JAVJ4g","standard","2","25","LP","5.5010771219302","228.325","233.829","234.184","5.859","0.355","3","321",NA
"113","R_2tlfygPA1JAVJ4g","standard","2","26","LP","0.264713485566566","235.189","235.46","236.102","0.913","0.642","3","324",NA
"114","R_2tlfygPA1JAVJ4g","standard","2","27","LP","8.51632916846187","237.109","245.635","246.042","8.933","0.407","3","327",NA
"115","R_2tlfygPA1JAVJ4g","standard","2","28","LP","1.25738905644119","247.044","248.308","248.726","1.682","0.418","3","330",NA
"116","R_2tlfygPA1JAVJ4g","standard","2","29","LP","8.51632916846187","249.736","258.253","258.761","9.025","0.508","3","333",NA
"117","R_2tlfygPA1JAVJ4g","standard","2","30","LP","19.8235243429556","259.766","279.604","279.993","20.227","0.389","3","336",NA
"118","R_2tlfygPA1JAVJ4g","standard","2","31","LP","19.8235243429556","280.997","300.822","301.464","20.467","0.642","3","339",NA
"119","R_2tlfygPA1JAVJ4g","standard","2","32","LP","1.25738905644119","302.469","303.734","304.054","1.585","0.32","3","342",NA
"120","R_2tlfygPA1JAVJ4g","standard","2","33","LP","0.264713485566566","305.061","305.334","305.734","0.673","0.4","3","345",NA
"121","R_2tlfygPA1JAVJ4g","standard","2","34","LP","1.25738905644119","306.741","308.013","308.342","1.601","0.329","3","348",NA
"122","R_2tlfygPA1JAVJ4g","standard","2","35","LP","0.264713485566566","309.345","309.614","309.974","0.629","0.36","3","351",NA
"123","R_2tlfygPA1JAVJ4g","standard","2","36","LP","19.8235243429556","310.981","330.813","331.208","20.227","0.395","3","354",NA
"124","R_2tlfygPA1JAVJ4g","standard","2","37","LP","13.0392072382594","332.223","345.272","345.672","13.449","0.4","3","357",NA
"125","R_2tlfygPA1JAVJ4g","standard","2","38","LP","8.51632916846187","346.677","355.201","355.558","8.881","0.357","3","360",NA
"126","R_2tlfygPA1JAVJ4g","standard","2","39","LP","8.51632916846187","356.571","365.094","365.447","8.876","0.353","3","363",NA
"127","R_2tlfygPA1JAVJ4g","standard","2","40","LP","0.264713485566566","366.454","366.726",NA,"1.277",NA,"0","363",NA
"128","R_2tlfygPA1JAVJ4g","standard","2","41","LP","5.5010771219302","368.734","374.242","374.63","5.896","0.388","3","366",NA
"129","R_2tlfygPA1JAVJ4g","standard","2","42","LP","0.661783713916415","375.641","376.31","376.615","0.974","0.305","3","369",NA
"130","R_2tlfygPA1JAVJ4g","standard","2","43","LP","0.264713485566566","377.622","377.902","378.262","0.64","0.36","3","372",NA
"131","R_2tlfygPA1JAVJ4g","standard","2","44","LP","5.5010771219302","379.271","384.781","385.158","5.887","0.377","3","375",NA
"132","R_2tlfygPA1JAVJ4g","standard","2","45","LP","1.25738905644119","386.171","387.431","388.056","1.885","0.625","3","378",NA
"133","R_2tlfygPA1JAVJ4g","standard","2","46","LP","8.51632916846187","389.062","397.591","397.973","8.911","0.382","3","381",NA
"134","R_2tlfygPA1JAVJ4g","standard","2","47","LP","1.25738905644119","398.991","400.254","400.6","1.609","0.346","3","384",NA
"135","R_2tlfygPA1JAVJ4g","standard","2","48","LP","5.5010771219302","401.61","407.113","407.462","5.852","0.349","3","387",NA
"136","R_2tlfygPA1JAVJ4g","standard","2","49","LP","1.25738905644119","408.47","409.73","410.15","1.68","0.42","3","390",NA
"137","R_2tlfygPA1JAVJ4g","standard","2","50","LP","5.5010771219302","411.158","416.67","417.08","5.922","0.41","3","393",NA
"138","R_2tlfygPA1JAVJ4g","standard","2","51","LP","8.51632916846187","418.086","426.606","426.965","8.879","0.359","3","396",NA
"139","R_2tlfygPA1JAVJ4g","standard","2","52","LP","8.51632916846187","427.969","436.499","436.824","8.855","0.325","3","399",NA
"140","R_2tlfygPA1JAVJ4g","standard","2","53","LP","19.8235243429556","437.83","457.654","458.039","20.209","0.385","3","402",NA
"141","R_2tlfygPA1JAVJ4g","standard","2","54","LP","19.8235243429556","459.046","478.878","479.287","20.241","0.409","3","405",NA
"142","R_2tlfygPA1JAVJ4g","standard","2","55","LP","13.0392072382594","480.294","493.335","493.671","13.377","0.336","3","408",NA
"143","R_2tlfygPA1JAVJ4g","standard","2","56","LP","0.264713485566566","494.678","494.951","495.301","0.623","0.35","3","411",NA
"144","R_2tlfygPA1JAVJ4g","standard","2","57","LP","13.0392072382594","496.304","509.35","509.751","13.447","0.401","3","414",NA
"145","R_2tlfygPA1JAVJ4g","standard","2","58","LP","3.49090909090909","510.766","514.262","514.645","3.879","0.383","3","417",NA
"146","R_2tlfygPA1JAVJ4g","standard","2","59","LP","19.8235243429556","515.646","535.476","535.798","20.152","0.322","3","420",NA
"147","R_2tlfygPA1JAVJ4g","standard","2","60","LP","2.15079707022835","536.807","538.959","539.348","2.541","0.389","3","423",NA
"148","R_2tlfygPA1JAVJ4g","standard","2","61","LP","13.0392072382594","540.351","553.405","553.895","13.544","0.49","3","426",NA
"149","R_2tlfygPA1JAVJ4g","standard","2","62","LP","2.15079707022835","554.903","557.055","557.589","2.686","0.534","3","429",NA
"150","R_2tlfygPA1JAVJ4g","standard","2","63","LP","5.5010771219302","558.591","564.098",NA,"6.515",NA,"0","429",NA
"151","R_2tlfygPA1JAVJ4g","standard","2","64","LP","8.51632916846187","566.118","574.638","574.996","8.878","0.358","3","432",NA
"152","R_2tlfygPA1JAVJ4g","standard","2","65","LP","13.0392072382594","576.005","589.048","589.35","13.345","0.302","3","435",NA
"153","R_2tlfygPA1JAVJ4g","standard","2","66","LP","1.25738905644119","590.351","591.62","592.004","1.653","0.384","3","438",NA
"154","R_2tlfygPA1JAVJ4g","standard","2","67","LP","2.15079707022835","593.007","595.159","595.508","2.501","0.349","3","441",NA
