"","subject_id","condition","n_block","n_trialIdx","f_timing_condition","n_scheduled_delay","n_trial_start_time","n_rewarded_time_fin","n_sell_time_fin","n_time_waited_fin","RT_fin","n_trial_earnings_fin","n_total_earnings_fin","keypress_times"
"1","R_2t9Jit0HtKQtJBk","standard","1","1","LP","19.8235243429556","0.002","19.827","20.217","20.215","0.39","3","3",""
"2","R_2t9Jit0HtKQtJBk","standard","1","2","LP","1.25738905644119","21.218","22.481","NA","2.267","NA","0","3",""
"3","R_2t9Jit0HtKQtJBk","standard","1","3","LP","0.661783713916415","24.49","25.156","25.531","1.041","0.375","3","6",""
"4","R_2t9Jit0HtKQtJBk","standard","1","4","LP","1.25738905644119","26.536","27.797","28.144","1.608","0.347","3","9",""
"5","R_2t9Jit0HtKQtJBk","standard","1","5","LP","3.49090909090909","29.145","32.639","33.042","3.897","0.403","3","12",""
"6","R_2t9Jit0HtKQtJBk","standard","1","6","LP","5.5010771219302","34.043","39.55","39.938","5.895","0.388","3","15",""
"7","R_2t9Jit0HtKQtJBk","standard","1","7","LP","0.264713485566566","40.943","41.208","41.634","0.691","0.426","3","18",""
"8","R_2t9Jit0HtKQtJBk","standard","1","8","LP","19.8235243429556","42.636","62.465","62.819","20.183","0.354","3","18","606"
"9","R_2t9Jit0HtKQtJBk","standard","1","9","LP","19.8235243429556","63.823","83.648","84.019","20.196","0.371","3","21",""
"10","R_2t9Jit0HtKQtJBk","standard","1","10","LP","1.25738905644119","85.02","86.278","86.809","1.789","0.531","3","24",""
"11","R_2t9Jit0HtKQtJBk","standard","1","11","LP","5.5010771219302","87.81","93.313","93.657","5.847","0.344","3","27",""
"12","R_2t9Jit0HtKQtJBk","standard","1","12","LP","3.49090909090909","94.658","98.152","98.529","3.871","0.377","3","30",""
"13","R_2t9Jit0HtKQtJBk","standard","1","13","LP","3.49090909090909","99.533","103.025","103.465","3.932","0.44","3","33",""
"14","R_2t9Jit0HtKQtJBk","standard","1","14","LP","30","104.466","134.467","134.834","30.368","0.367","3","33","7751"
"15","R_2t9Jit0HtKQtJBk","standard","1","15","LP","5.5010771219302","135.835","141.337","141.792","5.957","0.455","3","36",""
"16","R_2t9Jit0HtKQtJBk","standard","1","16","LP","30","142.794","172.799","173.168","30.374","0.369","3","39",""
"17","R_2t9Jit0HtKQtJBk","standard","1","17","LP","19.8235243429556","174.174","194.003","194.664","20.49","0.661","3","42",""
"18","R_2t9Jit0HtKQtJBk","standard","1","18","LP","8.51632916846187","195.667","204.184","204.592","8.925","0.408","3","45",""
"19","R_2t9Jit0HtKQtJBk","standard","1","19","LP","13.0392072382594","205.596","218.638","219","13.404","0.362","3","48",""
"20","R_2t9Jit0HtKQtJBk","standard","1","20","LP","0.264713485566566","220.005","220.274","NA","1.275","NA","0","48",""
"21","R_2t9Jit0HtKQtJBk","standard","1","21","LP","13.0392072382594","222.286","235.328","235.752","13.466","0.424","3","51",""
"22","R_2t9Jit0HtKQtJBk","standard","1","22","LP","2.15079707022835","236.758","238.909","239.375","2.617","0.466","3","54",""
"23","R_2t9Jit0HtKQtJBk","standard","1","23","LP","5.5010771219302","240.376","245.879","246.24","5.864","0.361","3","57",""
"24","R_2t9Jit0HtKQtJBk","standard","1","24","LP","8.51632916846187","247.24","255.758","256.335","9.095","0.577","3","57","7993"
"25","R_2t9Jit0HtKQtJBk","standard","1","25","LP","19.8235243429556","257.337","277.16","277.855","20.518","0.695","3","60",""
"26","R_2t9Jit0HtKQtJBk","standard","1","26","LP","0.264713485566566","278.859","279.128","NA","1.272","NA","0","60",""
"27","R_2t9Jit0HtKQtJBk","standard","1","27","LP","0.264713485566566","281.136","281.405","281.758","0.622","0.353","3","63",""
"28","R_2t9Jit0HtKQtJBk","standard","1","28","LP","3.49090909090909","282.76","286.255","286.79","4.03","0.535","3","66",""
"29","R_2t9Jit0HtKQtJBk","standard","1","29","LP","0.264713485566566","287.793","288.06","288.455","0.662","0.395","3","69",""
"30","R_2t9Jit0HtKQtJBk","standard","1","30","LP","19.8235243429556","289.459","309.283","309.743","20.284","0.46","3","72",""
"31","R_2t9Jit0HtKQtJBk","standard","1","31","LP","0.661783713916415","310.746","311.408","311.766","1.02","0.358","3","75",""
"32","R_2t9Jit0HtKQtJBk","standard","1","32","LP","3.49090909090909","312.768","316.263","316.721","3.953","0.458","3","78",""
"33","R_2t9Jit0HtKQtJBk","standard","1","33","LP","3.49090909090909","317.722","321.215","321.607","3.885","0.392","3","81",""
"34","R_2t9Jit0HtKQtJBk","standard","1","34","LP","3.49090909090909","322.608","326.103","326.462","3.854","0.359","3","84",""
"35","R_2t9Jit0HtKQtJBk","standard","1","35","LP","3.49090909090909","327.463","330.959","331.342","3.879","0.383","3","87",""
"36","R_2t9Jit0HtKQtJBk","standard","1","36","LP","13.0392072382594","332.346","345.388","345.838","13.492","0.45","3","87","4572"
"37","R_2t9Jit0HtKQtJBk","standard","1","37","LP","2.15079707022835","346.841","348.993","349.509","2.668","0.516","3","90",""
"38","R_2t9Jit0HtKQtJBk","standard","1","38","LP","13.0392072382594","350.51","363.554","363.942","13.432","0.388","3","93",""
"39","R_2t9Jit0HtKQtJBk","standard","1","39","LP","2.15079707022835","364.943","367.099","367.462","2.519","0.363","3","96",""
"40","R_2t9Jit0HtKQtJBk","standard","1","40","LP","2.15079707022835","368.463","370.615","370.989","2.526","0.374","3","99",""
"41","R_2t9Jit0HtKQtJBk","standard","1","41","LP","0.661783713916415","371.991","372.655","373.045","1.054","0.39","3","102",""
"42","R_2t9Jit0HtKQtJBk","standard","1","42","LP","5.5010771219302","374.05","379.557","379.919","5.869","0.362","3","105",""
"43","R_2t9Jit0HtKQtJBk","standard","1","43","LP","1.25738905644119","380.923","382.186","382.518","1.595","0.332","3","108",""
"44","R_2t9Jit0HtKQtJBk","standard","1","44","LP","0.264713485566566","383.522","383.792","384.157","0.635","0.365","3","111",""
"45","R_2t9Jit0HtKQtJBk","standard","1","45","LP","19.8235243429556","385.158","404.986","405.382","20.224","0.396","3","111","5088"
"46","R_2t9Jit0HtKQtJBk","standard","1","46","LP","3.49090909090909","406.386","409.881","410.389","4.003","0.508","3","114",""
"47","R_2t9Jit0HtKQtJBk","standard","1","47","LP","19.8235243429556","411.39","431.216","431.581","20.191","0.365","3","117",""
"48","R_2t9Jit0HtKQtJBk","standard","1","48","LP","0.264713485566566","432.583","432.852","433.204","0.621","0.352","3","120",""
"49","R_2t9Jit0HtKQtJBk","standard","1","49","LP","0.661783713916415","434.205","434.869","435.212","1.007","0.343","3","123",""
"50","R_2t9Jit0HtKQtJBk","standard","1","50","LP","5.5010771219302","436.213","441.719","442.149","5.936","0.43","3","126",""
"51","R_2t9Jit0HtKQtJBk","standard","1","51","LP","5.5010771219302","443.151","448.657","449.132","5.981","0.475","3","129",""
"52","R_2t9Jit0HtKQtJBk","standard","1","52","LP","30","450.137","480.143","480.557","30.42","0.414","3","129","8315"
"53","R_2t9Jit0HtKQtJBk","standard","1","53","LP","1.25738905644119","481.558","482.816","483.203","1.645","0.387","3","132",""
"54","R_2t9Jit0HtKQtJBk","standard","1","54","LP","5.5010771219302","484.204","489.706","490.124","5.92","0.418","3","135",""
"55","R_2t9Jit0HtKQtJBk","standard","1","55","LP","2.15079707022835","491.129","493.285","493.788","2.659","0.503","3","138",""
"56","R_2t9Jit0HtKQtJBk","standard","1","56","LP","13.0392072382594","494.794","507.835","508.364","13.57","0.529","3","141",""
"57","R_2t9Jit0HtKQtJBk","standard","1","57","LP","0.661783713916415","509.366","510.032","510.467","1.101","0.435","3","144",""
"58","R_2t9Jit0HtKQtJBk","standard","1","58","LP","0.661783713916415","511.468","512.133","512.564","1.096","0.431","3","147",""
"59","R_2t9Jit0HtKQtJBk","standard","1","59","LP","0.264713485566566","513.565","513.832","514.186","0.621","0.354","3","150",""
"60","R_2t9Jit0HtKQtJBk","standard","1","60","LP","5.5010771219302","515.188","520.692","521.228","6.04","0.536","3","153",""
"61","R_2t9Jit0HtKQtJBk","standard","1","61","LP","5.5010771219302","522.232","527.735","NA","6.509","NA","0","153",""
"62","R_2t9Jit0HtKQtJBk","standard","1","62","LP","2.15079707022835","529.744","531.899","532.332","2.588","0.433","3","156",""
"63","R_2t9Jit0HtKQtJBk","standard","1","63","LP","13.0392072382594","533.337","546.381","546.915","13.578","0.534","3","159",""
"64","R_2t9Jit0HtKQtJBk","standard","1","64","LP","0.661783713916415","547.919","548.584","549.011","1.092","0.427","3","162",""
"65","R_2t9Jit0HtKQtJBk","standard","1","65","LP","0.661783713916415","550.012","550.679","551.075","1.063","0.396","3","165",""
"66","R_2t9Jit0HtKQtJBk","standard","1","66","LP","2.15079707022835","552.077","554.229","554.635","2.558","0.406","3","168",""
"67","R_2t9Jit0HtKQtJBk","standard","1","67","LP","1.25738905644119","555.639","556.899","557.331","1.692","0.432","3","171",""
"68","R_2t9Jit0HtKQtJBk","standard","1","68","LP","30","558.337","588.342","588.66","30.323","0.318","3","174",""
"69","R_2t9Jit0HtKQtJBk","standard","1","69","LP","0.661783713916415","589.664","590.327","590.659","0.995","0.332","3","177",""
"70","R_2t9Jit0HtKQtJBk","standard","1","70","LP","1.25738905644119","591.664","592.925","593.403","1.739","0.478","3","180",""
"71","R_2t9Jit0HtKQtJBk","standard","1","71","LP","0.661783713916415","594.404","595.07","595.506","1.102","0.436","3","183",""
"72","R_2t9Jit0HtKQtJBk","standard","1","72","LP","3.49090909090909","596.508","599.998","600.459","3.951","0.461","3","186",""
"73","R_2t9Jit0HtKQtJBk","standard","1","73","LP","8.51632916846187","601.46","609.978","610.41","8.95","0.432","3","189",""
"74","R_2t9Jit0HtKQtJBk","standard","1","74","LP","19.8235243429556","611.411","631.24","631.731","20.32","0.491","3","192",""
"75","R_2t9Jit0HtKQtJBk","standard","1","75","LP","30","632.734","662.735","663.108","30.374","0.373","3","195",""
"76","R_2t9Jit0HtKQtJBk","standard","1","76","LP","13.0392072382594","664.109","677.149","NA","14.046","NA","0","195",""
"77","R_2t9Jit0HtKQtJBk","standard","1","77","LP","19.8235243429556","679.161","698.989","699.378","20.217","0.389","3","198",""
"78","R_2t9Jit0HtKQtJBk","standard","1","78","LP","0.264713485566566","700.381","700.646","700.97","0.589","0.324","3","201",""
"79","R_2t9Jit0HtKQtJBk","standard","1","79","LP","1.25738905644119","701.971","703.228","703.697","1.726","0.469","3","204",""
"80","R_2t9Jit0HtKQtJBk","standard","1","80","LP","2.15079707022835","704.699","706.849","707.282","2.583","0.433","3","207",""
"81","R_2t9Jit0HtKQtJBk","standard","1","81","LP","0.264713485566566","708.283","708.553","708.897","0.614","0.344","3","210",""
"82","R_2t9Jit0HtKQtJBk","standard","1","82","LP","0.661783713916415","709.899","710.561","710.97","1.071","0.409","3","213",""
"83","R_2t9Jit0HtKQtJBk","standard","1","83","LP","13.0392072382594","711.971","725.012","725.425","13.454","0.413","3","216",""
"84","R_2t9Jit0HtKQtJBk","standard","1","84","LP","8.51632916846187","726.429","734.95","735.434","9.005","0.484","3","219",""
"85","R_2t9Jit0HtKQtJBk","standard","1","85","LP","8.51632916846187","736.435","744.955","745.465","9.03","0.51","3","222",""
"86","R_2t9Jit0HtKQtJBk","standard","1","86","LP","5.5010771219302","746.466","751.971","752.409","5.943","0.438","3","225",""
"87","R_2t9Jit0HtKQtJBk","standard","1","87","LP","30","753.411","783.414","783.745","30.334","0.331","3","228",""
"88","R_2t9Jit0HtKQtJBk","standard","1","88","LP","13.0392072382594","784.748","797.79","798.145","13.397","0.355","3","231",""
"89","R_2t9Jit0HtKQtJBk","standard","1","89","LP","2.15079707022835","799.146","801.296","801.64","2.494","0.344","3","234",""
"90","R_2t9Jit0HtKQtJBk","standard","1","90","LP","3.49090909090909","802.646","806.141","806.503","3.857","0.362","3","237",""
"91","R_2t9Jit0HtKQtJBk","standard","1","91","LP","19.8235243429556","807.504","827.33","827.721","20.217","0.391","3","240",""
"92","R_2t9Jit0HtKQtJBk","standard","1","92","LP","5.5010771219302","828.723","834.228","834.619","5.896","0.391","3","243",""
"93","R_2t9Jit0HtKQtJBk","standard","1","93","LP","0.264713485566566","835.621","835.886","836.271","0.65","0.385","3","246",""
"94","R_2t9Jit0HtKQtJBk","standard","1","94","LP","30","837.273","867.278","867.608","30.335","0.33","3","249",""
"95","R_2t9Jit0HtKQtJBk","standard","1","95","LP","3.49090909090909","868.612","872.103","872.447","3.835","0.344","3","252",""
"96","R_2t9Jit0HtKQtJBk","standard","1","96","LP","13.0392072382594","873.449","886.491","886.864","13.415","0.373","3","255",""
"97","R_2t9Jit0HtKQtJBk","standard","1","97","LP","0.661783713916415","887.866","888.533","888.951","1.085","0.418","3","258",""
"98","R_2t9Jit0HtKQtJBk","standard","2","1","LP","30","0","NaN","0.946","0.946","NaN","0","258",NA
"99","R_2t9Jit0HtKQtJBk","standard","2","2","LP","5.5010771219302","1.947","NaN","2.537","0.59","NaN","0","258",NA
"100","R_2t9Jit0HtKQtJBk","standard","2","3","LP","5.5010771219302","3.54","NaN","4.249","0.709","NaN","0","258",NA
"101","R_2t9Jit0HtKQtJBk","standard","2","4","LP","0.264713485566566","5.25","5.517","5.544","0.294","0.027","3","261",NA
"102","R_2t9Jit0HtKQtJBk","standard","2","5","LP","5.5010771219302","6.545","NaN","6.705","0.16","NaN","0","261",NA
"103","R_2t9Jit0HtKQtJBk","standard","2","6","LP","8.51632916846187","7.705","NaN","8.065","0.36","NaN","0","261",NA
"104","R_2t9Jit0HtKQtJBk","standard","2","7","LP","19.8235243429556","9.066","NaN","9.401","0.335","NaN","0","261",NA
"105","R_2t9Jit0HtKQtJBk","standard","2","8","LP","8.51632916846187","10.402","NaN","10.657","0.255","NaN","0","261",NA
"106","R_2t9Jit0HtKQtJBk","standard","2","9","LP","0.661783713916415","11.661","NaN","11.969","0.308","NaN","0","261",NA
"107","R_2t9Jit0HtKQtJBk","standard","2","10","LP","0.661783713916415","12.972","13.638","13.665","0.693","0.027","3","264",NA
"108","R_2t9Jit0HtKQtJBk","standard","2","11","LP","5.5010771219302","14.666","NaN","15.137","0.471","NaN","0","264",NA
"109","R_2t9Jit0HtKQtJBk","standard","2","12","LP","0.264713485566566","16.143","NaN","16.401","0.258","NaN","0","264",NA
"110","R_2t9Jit0HtKQtJBk","standard","2","13","LP","5.5010771219302","17.405","NaN","17.681","0.276","NaN","0","264",NA
"111","R_2t9Jit0HtKQtJBk","standard","2","14","LP","30","18.682","NaN","18.929","0.247","NaN","0","264",NA
"112","R_2t9Jit0HtKQtJBk","standard","2","15","LP","3.49090909090909","19.933","NaN","20.065","0.132","NaN","0","264",NA
"113","R_2t9Jit0HtKQtJBk","standard","2","16","LP","2.15079707022835","21.066","NaN","21.201","0.135","NaN","0","264",NA
"114","R_2t9Jit0HtKQtJBk","standard","2","17","LP","0.264713485566566","22.202","NaN","22.433","0.231","NaN","0","264",NA
"115","R_2t9Jit0HtKQtJBk","standard","2","18","LP","1.25738905644119","23.438","NaN","23.712","0.274","NaN","0","264",NA
"116","R_2t9Jit0HtKQtJBk","standard","2","19","LP","3.49090909090909","24.714","NaN","25.027","0.313","NaN","0","264",NA
"117","R_2t9Jit0HtKQtJBk","standard","2","20","LP","19.8235243429556","26.03","NaN","26.273","0.243","NaN","0","264",NA
"118","R_2t9Jit0HtKQtJBk","standard","2","21","LP","0.661783713916415","27.274","NaN","27.537","0.263","NaN","0","264",NA
"119","R_2t9Jit0HtKQtJBk","standard","2","22","LP","2.15079707022835","28.54","NaN","28.753","0.213","NaN","0","264",NA
"120","R_2t9Jit0HtKQtJBk","standard","2","23","LP","13.0392072382594","29.758","NaN","30","0.242","NaN","0","264",NA
"121","R_2t9Jit0HtKQtJBk","standard","2","24","LP","3.49090909090909","31.002","NaN","31.049","0.047","NaN","0","264",NA
"122","R_2t9Jit0HtKQtJBk","standard","2","25","LP","1.25738905644119","32.055","NaN","32.545","0.49","NaN","0","264",NA
"123","R_2t9Jit0HtKQtJBk","standard","2","26","LP","8.51632916846187","33.548","NaN","33.753","0.205","NaN","0","264",NA
"124","R_2t9Jit0HtKQtJBk","standard","2","27","LP","2.15079707022835","34.754","NaN","35.001","0.247","NaN","0","264",NA
"125","R_2t9Jit0HtKQtJBk","standard","2","28","LP","2.15079707022835","36.003","NaN","36.241","0.238","NaN","0","264",NA
"126","R_2t9Jit0HtKQtJBk","standard","2","29","LP","8.51632916846187","37.242","NaN","37.537","0.295","NaN","0","264",NA
"127","R_2t9Jit0HtKQtJBk","standard","2","30","LP","1.25738905644119","38.541","NaN","38.585","0.044","NaN","0","264",NA
"128","R_2t9Jit0HtKQtJBk","standard","2","31","LP","3.49090909090909","39.586","NaN","42.361","2.775","NaN","0","264",NA
"129","R_2t9Jit0HtKQtJBk","standard","2","32","LP","19.8235243429556","43.364","NaN","46.049","2.685","NaN","0","264",NA
"130","R_2t9Jit0HtKQtJBk","standard","2","33","LP","3.49090909090909","47.051","NaN","47.537","0.486","NaN","0","264",NA
"131","R_2t9Jit0HtKQtJBk","standard","2","34","LP","8.51632916846187","48.538","NaN","52.785","4.247","NaN","0","264",NA
"132","R_2t9Jit0HtKQtJBk","standard","2","35","LP","0.661783713916415","53.79","54.452",NA,"1.668",NA,"0","264",NA
"133","R_2t9Jit0HtKQtJBk","standard","2","36","LP","13.0392072382594","56.463","NaN","56.808","0.345","NaN","0","264",NA
"134","R_2t9Jit0HtKQtJBk","standard","2","37","LP","2.15079707022835","57.81","NaN","59.2","1.39","NaN","0","264",NA
"135","R_2t9Jit0HtKQtJBk","standard","2","38","LP","2.15079707022835","60.203","62.356","62.386","2.183","0.03","3","267",NA
"136","R_2t9Jit0HtKQtJBk","standard","2","39","LP","1.25738905644119","63.387","NaN","63.816","0.429","NaN","0","267",NA
"137","R_2t9Jit0HtKQtJBk","standard","2","40","LP","8.51632916846187","64.818","NaN","65.316","0.498","NaN","0","267",NA
"138","R_2t9Jit0HtKQtJBk","standard","2","41","LP","0.264713485566566","66.316","66.581","66.993","0.677","0.412","3","270",NA
"139","R_2t9Jit0HtKQtJBk","standard","2","42","LP","2.15079707022835","67.994","70.15","70.464","2.47","0.314","3","273",NA
"140","R_2t9Jit0HtKQtJBk","standard","2","43","LP","2.15079707022835","71.468","73.623","74.064","2.596","0.441","3","276",NA
"141","R_2t9Jit0HtKQtJBk","standard","2","44","LP","1.25738905644119","75.066","NaN","75.6","0.534","NaN","0","276",NA
"142","R_2t9Jit0HtKQtJBk","standard","2","45","LP","8.51632916846187","76.602","NaN","76.856","0.254","NaN","0","276",NA
"143","R_2t9Jit0HtKQtJBk","standard","2","46","LP","3.49090909090909","77.858","NaN","78.145","0.287","NaN","0","276",NA
"144","R_2t9Jit0HtKQtJBk","standard","2","47","LP","2.15079707022835","79.15","NaN","80.208","1.058","NaN","0","276",NA
"145","R_2t9Jit0HtKQtJBk","standard","2","48","LP","5.5010771219302","81.208","NaN","82.552","1.344","NaN","0","276",NA
"146","R_2t9Jit0HtKQtJBk","standard","2","49","LP","19.8235243429556","83.554","NaN","85.064","1.51","NaN","0","276",NA
"147","R_2t9Jit0HtKQtJBk","standard","2","50","LP","8.51632916846187","86.065","NaN","90.353","4.288","NaN","0","276",NA
"148","R_2t9Jit0HtKQtJBk","standard","2","51","LP","5.5010771219302","91.354","NaN","93.144","1.79","NaN","0","276",NA
"149","R_2t9Jit0HtKQtJBk","standard","2","52","LP","0.264713485566566","94.145","94.411",NA,"1.268",NA,"0","276",NA
"150","R_2t9Jit0HtKQtJBk","standard","2","53","LP","5.5010771219302","96.414","NaN","97.418","1.004","NaN","0","276",NA
"151","R_2t9Jit0HtKQtJBk","standard","2","54","LP","19.8235243429556","98.419","NaN","101.136","2.717","NaN","0","276",NA
"152","R_2t9Jit0HtKQtJBk","standard","2","55","LP","2.15079707022835","102.142","NaN","103.592","1.45","NaN","0","276",NA
"153","R_2t9Jit0HtKQtJBk","standard","2","56","LP","19.8235243429556","104.596","NaN","105.568","0.972","NaN","0","276",NA
"154","R_2t9Jit0HtKQtJBk","standard","2","57","LP","0.661783713916415","106.569","107.235",NA,"1.672",NA,"0","276",NA
"155","R_2t9Jit0HtKQtJBk","standard","2","58","LP","5.5010771219302","109.246","NaN","111.304","2.058","NaN","0","276",NA
"156","R_2t9Jit0HtKQtJBk","standard","2","59","LP","0.661783713916415","112.305","112.969",NA,"1.666",NA,"0","276",NA
"157","R_2t9Jit0HtKQtJBk","standard","2","60","LP","1.25738905644119","114.976","NaN","115.648","0.672","NaN","0","276",NA
"158","R_2t9Jit0HtKQtJBk","standard","2","61","LP","2.15079707022835","116.651","NaN","117.84","1.189","NaN","0","276",NA
"159","R_2t9Jit0HtKQtJBk","standard","2","62","LP","8.51632916846187","118.841","NaN","120.152","1.311","NaN","0","276",NA
"160","R_2t9Jit0HtKQtJBk","standard","2","63","LP","5.5010771219302","121.152","NaN","123.688","2.536","NaN","0","276",NA
"161","R_2t9Jit0HtKQtJBk","standard","2","64","LP","30","124.692","NaN","126.657","1.965","NaN","0","276",NA
"162","R_2t9Jit0HtKQtJBk","standard","2","65","LP","2.15079707022835","127.657","NaN","129.704","2.047","NaN","0","276",NA
"163","R_2t9Jit0HtKQtJBk","standard","2","66","LP","8.51632916846187","130.706","NaN","132.695","1.989","NaN","0","276",NA
"164","R_2t9Jit0HtKQtJBk","standard","2","67","LP","5.5010771219302","133.7","NaN","135.68","1.98","NaN","0","276",NA
"165","R_2t9Jit0HtKQtJBk","standard","2","68","LP","3.49090909090909","136.681","NaN","139.4","2.719","NaN","0","276",NA
"166","R_2t9Jit0HtKQtJBk","standard","2","69","LP","0.661783713916415","140.401","141.068",NA,"1.672",NA,"0","276",NA
"167","R_2t9Jit0HtKQtJBk","standard","2","70","LP","13.0392072382594","143.075","NaN","143.951","0.876","NaN","0","276",NA
"168","R_2t9Jit0HtKQtJBk","standard","2","71","LP","30","144.955","NaN","148.672","3.717","NaN","0","276",NA
"169","R_2t9Jit0HtKQtJBk","standard","2","72","LP","5.5010771219302","149.673","NaN","150.919","1.246","NaN","0","276",NA
"170","R_2t9Jit0HtKQtJBk","standard","2","73","LP","1.25738905644119","151.922","153.185","153.623","1.701","0.438","3","279",NA
"171","R_2t9Jit0HtKQtJBk","standard","2","74","LP","3.49090909090909","154.625","NaN","155.743","1.118","NaN","0","279",NA
"172","R_2t9Jit0HtKQtJBk","standard","2","75","LP","0.661783713916415","156.747","NaN","157.351","0.604","NaN","0","279",NA
"173","R_2t9Jit0HtKQtJBk","standard","2","76","LP","8.51632916846187","158.353","NaN","159.504","1.151","NaN","0","279",NA
"174","R_2t9Jit0HtKQtJBk","standard","2","77","LP","0.264713485566566","160.505","160.773","161.743","1.238","0.97","3","282",NA
"175","R_2t9Jit0HtKQtJBk","standard","2","78","LP","1.25738905644119","162.746","NaN","163.783","1.037","NaN","0","282",NA
"176","R_2t9Jit0HtKQtJBk","standard","2","79","LP","3.49090909090909","164.785","NaN","165.263","0.478","NaN","0","282",NA
"177","R_2t9Jit0HtKQtJBk","standard","2","80","LP","30","166.267","NaN","167.679","1.412","NaN","0","282",NA
"178","R_2t9Jit0HtKQtJBk","standard","2","81","LP","2.15079707022835","168.684","NaN","170.002","1.318","NaN","0","282",NA
"179","R_2t9Jit0HtKQtJBk","standard","2","82","LP","2.15079707022835","171.003","NaN","172.536","1.533","NaN","0","282",NA
"180","R_2t9Jit0HtKQtJBk","standard","2","83","LP","5.5010771219302","173.536","NaN","174.535","0.999","NaN","0","282",NA
"181","R_2t9Jit0HtKQtJBk","standard","2","84","LP","3.49090909090909","175.537","NaN","178.375","2.838","NaN","0","282",NA
"182","R_2t9Jit0HtKQtJBk","standard","2","85","LP","1.25738905644119","179.377","180.639","180.983","1.606","0.344","3","285",NA
"183","R_2t9Jit0HtKQtJBk","standard","2","86","LP","0.264713485566566","181.985","182.253",NA,"1.273",NA,"0","285",NA
"184","R_2t9Jit0HtKQtJBk","standard","2","87","LP","19.8235243429556","184.26","NaN","184.535","0.275","NaN","0","285",NA
"185","R_2t9Jit0HtKQtJBk","standard","2","88","LP","1.25738905644119","185.54","186.802",NA,"2.263",NA,"0","285",NA
"186","R_2t9Jit0HtKQtJBk","standard","2","89","LP","0.661783713916415","188.803","NaN","189.079","0.276","NaN","0","285",NA
"187","R_2t9Jit0HtKQtJBk","standard","2","90","LP","8.51632916846187","190.08","NaN","194.592","4.512","NaN","0","285",NA
"188","R_2t9Jit0HtKQtJBk","standard","2","91","LP","5.5010771219302","195.593","NaN","200.217","4.624","NaN","0","285",NA
"189","R_2t9Jit0HtKQtJBk","standard","2","92","LP","3.49090909090909","201.219","204.71",NA,"4.494",NA,"0","285",NA
"190","R_2t9Jit0HtKQtJBk","standard","2","93","LP","0.264713485566566","206.714","206.981","207.159","0.445","0.178","3","288",NA
"191","R_2t9Jit0HtKQtJBk","standard","2","94","LP","1.25738905644119","208.16","NaN","208.534","0.374","NaN","0","288",NA
"192","R_2t9Jit0HtKQtJBk","standard","2","95","LP","8.51632916846187","209.535","NaN","210.455","0.92","NaN","0","288",NA
"193","R_2t9Jit0HtKQtJBk","standard","2","96","LP","8.51632916846187","211.455","NaN","216.322","4.867","NaN","0","288",NA
"194","R_2t9Jit0HtKQtJBk","standard","2","97","LP","19.8235243429556","217.324","NaN","221.207","3.883","NaN","0","288",NA
"195","R_2t9Jit0HtKQtJBk","standard","2","98","LP","19.8235243429556","222.208","NaN","222.559","0.351","NaN","0","288",NA
"196","R_2t9Jit0HtKQtJBk","standard","2","99","LP","2.15079707022835","223.559","NaN","224.719","1.16","NaN","0","288",NA
"197","R_2t9Jit0HtKQtJBk","standard","2","100","LP","0.661783713916415","225.721","226.383",NA,"1.666",NA,"0","288",NA
"198","R_2t9Jit0HtKQtJBk","standard","2","101","LP","5.5010771219302","228.388","NaN","228.671","0.283","NaN","0","288",NA
"199","R_2t9Jit0HtKQtJBk","standard","2","102","LP","0.661783713916415","229.672","230.337","230.847","1.175","0.51","3","291",NA
"200","R_2t9Jit0HtKQtJBk","standard","2","103","LP","13.0392072382594","231.848","NaN","232.134","0.286","NaN","0","291",NA
"201","R_2t9Jit0HtKQtJBk","standard","2","104","LP","2.15079707022835","233.139","235.293","235.798","2.659","0.505","3","294",NA
"202","R_2t9Jit0HtKQtJBk","standard","2","105","LP","3.49090909090909","236.801","240.296","240.703","3.902","0.407","3","297",NA
"203","R_2t9Jit0HtKQtJBk","standard","2","106","LP","2.15079707022835","241.704","243.856","244.606","2.902","0.75","3","300",NA
"204","R_2t9Jit0HtKQtJBk","standard","2","107","LP","2.15079707022835","245.607","247.759","248.174","2.567","0.415","3","303",NA
"205","R_2t9Jit0HtKQtJBk","standard","2","108","LP","5.5010771219302","249.176","NaN","250.509","1.333","NaN","0","303",NA
"206","R_2t9Jit0HtKQtJBk","standard","2","109","LP","30","251.51","NaN","265.695","14.185","NaN","0","303",NA
"207","R_2t9Jit0HtKQtJBk","standard","2","110","LP","3.49090909090909","266.696","NaN","268.981","2.285","NaN","0","303",NA
"208","R_2t9Jit0HtKQtJBk","standard","2","111","LP","30","269.982","299.986","300.294","30.312","0.308","3","306",NA
"209","R_2t9Jit0HtKQtJBk","standard","2","112","LP","30","301.296","331.3","331.614","30.318","0.314","3","309",NA
"210","R_2t9Jit0HtKQtJBk","standard","2","113","LP","1.25738905644119","332.616","333.878",NA,"2.264",NA,"0","309",NA
"211","R_2t9Jit0HtKQtJBk","standard","2","114","LP","13.0392072382594","335.885","348.926",NA,"14.047",NA,"0","309",NA
"212","R_2t9Jit0HtKQtJBk","standard","2","115","LP","8.51632916846187","350.935","NaN","352.838","1.903","NaN","0","309",NA
"213","R_2t9Jit0HtKQtJBk","standard","2","116","LP","2.15079707022835","353.844","NaN","354.491","0.647","NaN","0","309",NA
"214","R_2t9Jit0HtKQtJBk","standard","2","117","LP","8.51632916846187","355.496","NaN","360.63","5.134","NaN","0","309",NA
"215","R_2t9Jit0HtKQtJBk","standard","2","118","LP","3.49090909090909","361.631","365.124",NA,"4.498",NA,"0","309",NA
"216","R_2t9Jit0HtKQtJBk","standard","2","119","LP","3.49090909090909","367.134","370.625",NA,"4.495",NA,"0","309",NA
"217","R_2t9Jit0HtKQtJBk","standard","2","120","LP","8.51632916846187","372.633","NaN","379.238","6.605","NaN","0","309",NA
"218","R_2t9Jit0HtKQtJBk","standard","2","121","LP","3.49090909090909","380.241","383.737",NA,"4.501",NA,"0","309",NA
"219","R_2t9Jit0HtKQtJBk","standard","2","122","LP","30","385.746","NaN","388.405","2.659","NaN","0","309",NA
"220","R_2t9Jit0HtKQtJBk","standard","2","123","LP","19.8235243429556","389.406","409.231","409.645","20.239","0.414","3","312",NA
"221","R_2t9Jit0HtKQtJBk","standard","2","124","LP","3.49090909090909","410.647","414.137",NA,"4.495",NA,"0","312",NA
"222","R_2t9Jit0HtKQtJBk","standard","2","125","LP","0.661783713916415","416.146","416.81",NA,"1.667",NA,"0","312",NA
"223","R_2t9Jit0HtKQtJBk","standard","2","126","LP","5.5010771219302","418.813","NaN","419.422","0.609","NaN","0","312",NA
"224","R_2t9Jit0HtKQtJBk","standard","2","127","LP","3.49090909090909","420.427","423.921",NA,"4.498",NA,"0","312",NA
"225","R_2t9Jit0HtKQtJBk","standard","2","128","LP","30","425.93","NaN","429.597","3.667","NaN","0","312",NA
"226","R_2t9Jit0HtKQtJBk","standard","2","129","LP","19.8235243429556","430.6","NaN","436.484","5.884","NaN","0","312",NA
"227","R_2t9Jit0HtKQtJBk","standard","2","130","LP","0.661783713916415","437.485","438.149",NA,"1.67",NA,"0","312",NA
"228","R_2t9Jit0HtKQtJBk","standard","2","131","LP","13.0392072382594","440.156","NaN","445.628","5.472","NaN","0","312",NA
"229","R_2t9Jit0HtKQtJBk","standard","2","132","LP","13.0392072382594","446.633","459.677",NA,"14.048",NA,"0","312",NA
"230","R_2t9Jit0HtKQtJBk","standard","2","133","LP","1.25738905644119","461.686","NaN","462.74","1.054","NaN","0","312",NA
"231","R_2t9Jit0HtKQtJBk","standard","2","134","LP","3.49090909090909","463.744","467.237",NA,"4.496",NA,"0","312",NA
"232","R_2t9Jit0HtKQtJBk","standard","2","135","LP","3.49090909090909","469.245","NaN","469.251","0.006","NaN","0","312",NA
"233","R_2t9Jit0HtKQtJBk","standard","2","136","LP","5.5010771219302","470.252","NaN","472.092","1.84","NaN","0","312",NA
"234","R_2t9Jit0HtKQtJBk","standard","2","137","LP","0.661783713916415","473.097","473.759",NA,"1.667",NA,"0","312",NA
"235","R_2t9Jit0HtKQtJBk","standard","2","138","LP","0.661783713916415","475.765","476.43",NA,"1.668",NA,"0","312",NA
"236","R_2t9Jit0HtKQtJBk","standard","2","139","LP","3.49090909090909","478.438","481.934",NA,"4.502",NA,"0","312",NA
"237","R_2t9Jit0HtKQtJBk","standard","2","140","LP","30","483.941","NaN","486.244","2.303","NaN","0","312",NA
"238","R_2t9Jit0HtKQtJBk","standard","2","141","LP","1.25738905644119","487.245","488.503",NA,"2.26",NA,"0","312",NA
"239","R_2t9Jit0HtKQtJBk","standard","2","142","LP","2.15079707022835","490.507","NaN","492.267","1.76","NaN","0","312",NA
"240","R_2t9Jit0HtKQtJBk","standard","2","143","LP","5.5010771219302","493.268","NaN","498.196","4.928","NaN","0","312",NA
"241","R_2t9Jit0HtKQtJBk","standard","2","144","LP","5.5010771219302","499.197","NaN","501.971","2.774","NaN","0","312",NA
"242","R_2t9Jit0HtKQtJBk","standard","2","145","LP","0.264713485566566","502.972","503.239",NA,"1.271",NA,"0","312",NA
"243","R_2t9Jit0HtKQtJBk","standard","2","146","LP","0.661783713916415","505.249","505.911","506.506","1.257","0.595","3","315",NA
"244","R_2t9Jit0HtKQtJBk","standard","2","147","LP","30","507.507","NaN","512.652","5.145","NaN","0","315",NA
"245","R_2t9Jit0HtKQtJBk","standard","2","148","LP","0.264713485566566","513.653","513.922",NA,"1.274",NA,"0","315",NA
"246","R_2t9Jit0HtKQtJBk","standard","2","149","LP","5.5010771219302","515.928","NaN","519.171","3.243","NaN","0","315",NA
"247","R_2t9Jit0HtKQtJBk","standard","2","150","LP","19.8235243429556","520.175","NaN","523.93","3.755","NaN","0","315",NA
"248","R_2t9Jit0HtKQtJBk","standard","2","151","LP","30","524.931","NaN","527.318","2.387","NaN","0","315",NA
"249","R_2t9Jit0HtKQtJBk","standard","2","152","LP","0.264713485566566","528.33","528.596",NA,"1.269",NA,"0","315",NA
"250","R_2t9Jit0HtKQtJBk","standard","2","153","LP","13.0392072382594","530.6","NaN","536.212","5.612","NaN","0","315",NA
"251","R_2t9Jit0HtKQtJBk","standard","2","154","LP","3.49090909090909","537.214","540.706",NA,"4.496",NA,"0","315",NA
"252","R_2t9Jit0HtKQtJBk","standard","2","155","LP","19.8235243429556","542.711","NaN","543.731","1.02","NaN","0","315",NA
"253","R_2t9Jit0HtKQtJBk","standard","2","156","LP","13.0392072382594","544.732","NaN","546.595","1.863","NaN","0","315",NA
"254","R_2t9Jit0HtKQtJBk","standard","2","157","LP","8.51632916846187","547.597","NaN","549.506","1.909","NaN","0","315",NA
"255","R_2t9Jit0HtKQtJBk","standard","2","158","LP","2.15079707022835","550.507","NaN","552.219","1.712","NaN","0","315",NA
"256","R_2t9Jit0HtKQtJBk","standard","2","159","LP","8.51632916846187","553.22","NaN","555.498","2.278","NaN","0","315",NA
"257","R_2t9Jit0HtKQtJBk","standard","2","160","LP","19.8235243429556","556.499","NaN","559.818","3.319","NaN","0","315",NA
"258","R_2t9Jit0HtKQtJBk","standard","2","161","LP","0.264713485566566","560.819","561.086",NA,"1.269",NA,"0","315",NA
"259","R_2t9Jit0HtKQtJBk","standard","2","162","LP","1.25738905644119","563.093","564.35","565.138","2.045","0.788","3","318",NA
"260","R_2t9Jit0HtKQtJBk","standard","2","163","LP","2.15079707022835","566.14","NaN","567.595","1.455","NaN","0","318",NA
"261","R_2t9Jit0HtKQtJBk","standard","2","164","LP","8.51632916846187","568.597","NaN","572.227","3.63","NaN","0","318",NA
"262","R_2t9Jit0HtKQtJBk","standard","2","165","LP","0.264713485566566","573.227","573.497",NA,"1.271",NA,"0","318",NA
"263","R_2t9Jit0HtKQtJBk","standard","2","166","LP","19.8235243429556","575.498","NaN","576.929","1.431","NaN","0","318",NA
"264","R_2t9Jit0HtKQtJBk","standard","2","167","LP","1.25738905644119","577.931","579.188","579.922","1.991","0.734","3","321",NA
"265","R_2t9Jit0HtKQtJBk","standard","2","168","LP","13.0392072382594","580.925","NaN","584.995","4.07","NaN","0","321",NA
"266","R_2t9Jit0HtKQtJBk","standard","2","169","LP","0.661783713916415","585.997","586.66",NA,"1.665",NA,"0","321",NA
"267","R_2t9Jit0HtKQtJBk","standard","2","170","LP","13.0392072382594","588.663","NaN","589.762","1.099","NaN","0","321",NA
"268","R_2t9Jit0HtKQtJBk","standard","2","171","LP","3.49090909090909","590.763","NaN","593.722","2.959","NaN","0","321",NA
"269","R_2t9Jit0HtKQtJBk","standard","2","172","LP","3.49090909090909","594.726","NaN","598.195","3.469","NaN","0","321",NA
"270","R_2t9Jit0HtKQtJBk","standard","2","173","LP","5.5010771219302","599.197","NaN","599.698","0.501","NaN","0","321",NA
