"","subject_id","condition","n_block","n_trialIdx","f_timing_condition","n_scheduled_delay","n_trial_start_time","n_rewarded_time_fin","n_sell_time_fin","n_time_waited_fin","RT_fin","n_trial_earnings_fin","n_total_earnings_fin","keypress_times"
"1","R_2txR6PdFt4OQP0Q","standard","1","1","LP","0.264713485566566","0.001","0.287","NA","1.299","NA","0","0",""
"2","R_2txR6PdFt4OQP0Q","standard","1","2","LP","0.661783713916415","2.306","2.969","3.363","1.057","0.394","3","3",""
"3","R_2txR6PdFt4OQP0Q","standard","1","3","LP","13.0392072382594","4.369","17.424","17.789","13.42","0.365","3","6",""
"4","R_2txR6PdFt4OQP0Q","standard","1","4","LP","3.49090909090909","18.809","22.314","22.739","3.93","0.425","3","9",""
"5","R_2txR6PdFt4OQP0Q","standard","1","5","LP","2.15079707022835","23.746","25.9","26.252","2.506","0.352","3","12",""
"6","R_2txR6PdFt4OQP0Q","standard","1","6","LP","0.661783713916415","27.265","27.934","28.435","1.17","0.501","3","15",""
"7","R_2txR6PdFt4OQP0Q","standard","1","7","LP","8.51632916846187","29.441","37.966","38.388","8.947","0.422","3","18",""
"8","R_2txR6PdFt4OQP0Q","standard","1","8","LP","19.8235243429556","39.4","59.236","59.597","20.197","0.361","3","21",""
"9","R_2txR6PdFt4OQP0Q","standard","1","9","LP","3.49090909090909","60.605","64.098","64.492","3.887","0.394","3","24",""
"10","R_2txR6PdFt4OQP0Q","standard","1","10","LP","13.0392072382594","65.51","78.561","78.909","13.399","0.348","3","27",""
"11","R_2txR6PdFt4OQP0Q","standard","1","11","LP","5.5010771219302","79.911","85.417","85.86","5.949","0.443","3","30",""
"12","R_2txR6PdFt4OQP0Q","standard","1","12","LP","19.8235243429556","86.887","106.723","107.061","20.174","0.338","3","33",""
"13","R_2txR6PdFt4OQP0Q","standard","1","13","LP","19.8235243429556","108.077","127.912","128.381","20.304","0.469","3","36",""
"14","R_2txR6PdFt4OQP0Q","standard","1","14","LP","13.0392072382594","129.398","142.441","142.867","13.469","0.426","3","39",""
"15","R_2txR6PdFt4OQP0Q","standard","1","15","LP","3.49090909090909","143.882","147.378","148.06","4.178","0.682","3","42",""
"16","R_2txR6PdFt4OQP0Q","standard","1","16","LP","0.661783713916415","149.066","149.735","150.499","1.433","0.764","3","45",""
"17","R_2txR6PdFt4OQP0Q","standard","1","17","LP","0.661783713916415","151.507","152.174","152.572","1.065","0.398","3","48",""
"18","R_2txR6PdFt4OQP0Q","standard","1","18","LP","30","153.591","183.606","183.94","30.349","0.334","3","51",""
"19","R_2txR6PdFt4OQP0Q","standard","1","19","LP","0.264713485566566","184.955","185.226","185.659","0.704","0.433","3","54",""
"20","R_2txR6PdFt4OQP0Q","standard","1","20","LP","3.49090909090909","186.678","190.184","190.579","3.901","0.395","3","57",""
"21","R_2txR6PdFt4OQP0Q","standard","1","21","LP","0.264713485566566","191.601","191.884","192.284","0.683","0.4","3","60",""
"22","R_2txR6PdFt4OQP0Q","standard","1","22","LP","30","193.303","223.32","223.699","30.396","0.379","3","63",""
"23","R_2txR6PdFt4OQP0Q","standard","1","23","LP","0.264713485566566","224.719","224.988","225.715","0.996","0.727","3","66",""
"24","R_2txR6PdFt4OQP0Q","standard","1","24","LP","5.5010771219302","226.725","232.23","232.851","6.126","0.621","3","69",""
"25","R_2txR6PdFt4OQP0Q","standard","1","25","LP","30","233.859","263.881","264.197","30.338","0.316","3","72",""
"26","R_2txR6PdFt4OQP0Q","standard","1","26","LP","0.661783713916415","265.214","265.884","266.459","1.245","0.575","3","75",""
"27","R_2txR6PdFt4OQP0Q","standard","1","27","LP","13.0392072382594","267.467","280.516","281.077","13.61","0.561","3","78",""
"28","R_2txR6PdFt4OQP0Q","standard","1","28","LP","3.49090909090909","282.085","285.589","286.019","3.934","0.43","3","81",""
"29","R_2txR6PdFt4OQP0Q","standard","1","29","LP","0.661783713916415","287.022","287.692","288.116","1.094","0.424","3","84",""
"30","R_2txR6PdFt4OQP0Q","standard","1","30","LP","2.15079707022835","289.124","291.294","291.718","2.594","0.424","3","87",""
"31","R_2txR6PdFt4OQP0Q","standard","1","31","LP","13.0392072382594","292.727","305.778","306.236","13.509","0.458","3","90",""
"32","R_2txR6PdFt4OQP0Q","standard","1","32","LP","0.264713485566566","307.243","307.513","308.076","0.833","0.563","3","93",""
"33","R_2txR6PdFt4OQP0Q","standard","1","33","LP","5.5010771219302","309.096","314.603","NA","6.526","NA","0","93",""
"34","R_2txR6PdFt4OQP0Q","standard","1","34","LP","8.51632916846187","316.622","325.16","325.589","8.967","0.429","3","96",""
"35","R_2txR6PdFt4OQP0Q","standard","1","35","LP","8.51632916846187","326.6","335.128","335.563","8.963","0.435","3","99",""
"36","R_2txR6PdFt4OQP0Q","standard","1","36","LP","3.49090909090909","336.57","340.07","340.539","3.969","0.469","3","102",""
"37","R_2txR6PdFt4OQP0Q","standard","1","37","LP","13.0392072382594","341.561","354.612","355.021","13.46","0.409","3","105",""
"38","R_2txR6PdFt4OQP0Q","standard","1","38","LP","0.264713485566566","356.029","356.299","356.764","0.735","0.465","3","108",""
"39","R_2txR6PdFt4OQP0Q","standard","1","39","LP","0.661783713916415","357.786","358.463","358.939","1.153","0.476","3","111",""
"40","R_2txR6PdFt4OQP0Q","standard","1","40","LP","19.8235243429556","359.946","379.795","NA","20.871","NA","0","108","19756"
"41","R_2txR6PdFt4OQP0Q","standard","1","41","LP","19.8235243429556","381.82","401.651","402.062","20.242","0.411","3","111",""
"42","R_2txR6PdFt4OQP0Q","standard","1","42","LP","0.264713485566566","403.079","403.346","403.74","0.661","0.394","3","114",""
"43","R_2txR6PdFt4OQP0Q","standard","1","43","LP","8.51632916846187","404.751","413.279","413.667","8.916","0.388","3","117",""
"44","R_2txR6PdFt4OQP0Q","standard","1","44","LP","2.15079707022835","414.681","416.834","417.515","2.834","0.681","3","120",""
"45","R_2txR6PdFt4OQP0Q","standard","1","45","LP","0.264713485566566","418.517","418.786","419.276","0.759","0.49","3","123",""
"46","R_2txR6PdFt4OQP0Q","standard","1","46","LP","0.264713485566566","420.288","420.554","421.043","0.755","0.489","3","126",""
"47","R_2txR6PdFt4OQP0Q","standard","1","47","LP","8.51632916846187","422.052","430.582","431.045","8.993","0.463","3","129",""
"48","R_2txR6PdFt4OQP0Q","standard","1","48","LP","13.0392072382594","432.062","445.114","445.622","13.56","0.508","3","132",""
"49","R_2txR6PdFt4OQP0Q","standard","1","49","LP","30","446.631","476.635","476.997","30.366","0.362","3","135",""
"50","R_2txR6PdFt4OQP0Q","standard","1","50","LP","30","478.015","508.017","508.411","30.396","0.394","3","138",""
"51","R_2txR6PdFt4OQP0Q","standard","1","51","LP","13.0392072382594","509.418","522.483","523.051","13.633","0.568","3","141",""
"52","R_2txR6PdFt4OQP0Q","standard","1","52","LP","5.5010771219302","524.052","529.573","530.027","5.975","0.454","3","144",""
"53","R_2txR6PdFt4OQP0Q","standard","1","53","LP","2.15079707022835","531.038","533.194","533.637","2.599","0.443","3","147",""
"54","R_2txR6PdFt4OQP0Q","standard","1","54","LP","5.5010771219302","534.642","540.149","540.603","5.961","0.454","3","150",""
"55","R_2txR6PdFt4OQP0Q","standard","1","55","LP","13.0392072382594","541.619","554.686","555.068","13.449","0.382","3","153",""
"56","R_2txR6PdFt4OQP0Q","standard","1","56","LP","0.264713485566566","556.087","556.354","556.812","0.725","0.458","3","156",""
"57","R_2txR6PdFt4OQP0Q","standard","1","57","LP","5.5010771219302","557.821","563.329","563.732","5.911","0.403","3","159",""
"58","R_2txR6PdFt4OQP0Q","standard","1","58","LP","30","564.742","594.746","595.19","30.448","0.444","3","162",""
"59","R_2txR6PdFt4OQP0Q","standard","1","59","LP","30","596.197","626.212","626.606","30.409","0.394","3","165",""
"60","R_2txR6PdFt4OQP0Q","standard","1","60","LP","13.0392072382594","627.614","640.68","641.235","13.621","0.555","3","168",""
"61","R_2txR6PdFt4OQP0Q","standard","1","61","LP","0.264713485566566","642.246","642.515","642.988","0.742","0.473","3","171",""
"62","R_2txR6PdFt4OQP0Q","standard","1","62","LP","2.15079707022835","644","646.153","646.644","2.644","0.491","3","174",""
"63","R_2txR6PdFt4OQP0Q","standard","1","63","LP","8.51632916846187","647.652","656.181","656.852","9.2","0.671","3","177",""
"64","R_2txR6PdFt4OQP0Q","standard","1","64","LP","13.0392072382594","657.861","670.912","671.468","13.607","0.556","3","180",""
"65","R_2txR6PdFt4OQP0Q","standard","1","65","LP","19.8235243429556","672.482","692.319","692.75","20.268","0.431","3","183",""
"66","R_2txR6PdFt4OQP0Q","standard","1","66","LP","30","693.755","723.761","724.173","30.418","0.412","3","186",""
"67","R_2txR6PdFt4OQP0Q","standard","1","67","LP","13.0392072382594","725.189","738.234","738.78","13.591","0.546","3","189",""
"68","R_2txR6PdFt4OQP0Q","standard","1","68","LP","2.15079707022835","739.79","741.943","742.42","2.63","0.477","3","192",""
"69","R_2txR6PdFt4OQP0Q","standard","1","69","LP","2.15079707022835","743.428","745.596","746.236","2.808","0.64","3","195",""
"70","R_2txR6PdFt4OQP0Q","standard","1","70","LP","19.8235243429556","747.243","767.085","767.5","20.257","0.415","3","198",""
"71","R_2txR6PdFt4OQP0Q","standard","1","71","LP","1.25738905644119","768.519","769.788","770.196","1.677","0.408","3","201",""
"72","R_2txR6PdFt4OQP0Q","standard","1","72","LP","0.264713485566566","771.206","771.491","772.027","0.821","0.536","3","204",""
"73","R_2txR6PdFt4OQP0Q","standard","1","73","LP","30","773.034","803.054","803.438","30.404","0.384","3","207",""
"74","R_2txR6PdFt4OQP0Q","standard","1","74","LP","0.264713485566566","804.446","804.725","805.132","0.686","0.407","3","210",""
"75","R_2txR6PdFt4OQP0Q","standard","1","75","LP","2.15079707022835","806.139","808.315","808.82","2.681","0.505","3","213",""
"76","R_2txR6PdFt4OQP0Q","standard","1","76","LP","0.264713485566566","809.831","810.099","810.652","0.821","0.553","3","216",""
"77","R_2txR6PdFt4OQP0Q","standard","1","77","LP","5.5010771219302","811.654","817.175","817.678","6.024","0.503","3","219",""
"78","R_2txR6PdFt4OQP0Q","standard","1","78","LP","2.15079707022835","818.692","820.862","821.307","2.615","0.445","3","222",""
"79","R_2txR6PdFt4OQP0Q","standard","1","79","LP","3.49090909090909","822.313","825.817","826.292","3.979","0.475","3","225",""
"80","R_2txR6PdFt4OQP0Q","standard","1","80","LP","1.25738905644119","827.302","828.562","829.052","1.75","0.49","3","228",""
"81","R_2txR6PdFt4OQP0Q","standard","1","81","LP","2.15079707022835","830.058","832.225","832.763","2.705","0.538","3","231",""
"82","R_2txR6PdFt4OQP0Q","standard","1","82","LP","5.5010771219302","833.777","839.283","839.724","5.947","0.441","3","234",""
"83","R_2txR6PdFt4OQP0Q","standard","1","83","LP","3.49090909090909","840.73","844.222","844.676","3.946","0.454","3","237",""
"84","R_2txR6PdFt4OQP0Q","standard","1","84","LP","3.49090909090909","845.69","849.193","849.644","3.954","0.451","3","240",""
"85","R_2txR6PdFt4OQP0Q","standard","1","85","LP","30","850.65","880.658","881.044","30.394","0.386","3","243",""
"86","R_2txR6PdFt4OQP0Q","standard","1","86","LP","2.15079707022835","882.058","884.213","884.66","2.602","0.447","3","246",""
"87","R_2txR6PdFt4OQP0Q","standard","1","87","LP","0.661783713916415","885.667","886.335","886.779","1.112","0.444","3","249",""
"88","R_2txR6PdFt4OQP0Q","standard","1","88","LP","1.25738905644119","887.803","889.07","889.467","1.664","0.397","3","252",""
"89","R_2txR6PdFt4OQP0Q","standard","1","89","LP","5.5010771219302","890.49","896.008","896.43","5.94","0.422","3","255",""
"90","R_2txR6PdFt4OQP0Q","standard","2","1","LP","19.8235243429556","0","NaN","3.569","3.569","NaN","0","255",NA
"91","R_2txR6PdFt4OQP0Q","standard","2","2","LP","13.0392072382594","4.582","NaN","6.535","1.953","NaN","0","255",NA
"92","R_2txR6PdFt4OQP0Q","standard","2","3","LP","13.0392072382594","7.54","NaN","9.743","2.203","NaN","0","255",NA
"93","R_2txR6PdFt4OQP0Q","standard","2","4","LP","0.661783713916415","10.751","11.423","11.863","1.112","0.44","3","258",NA
"94","R_2txR6PdFt4OQP0Q","standard","2","5","LP","0.661783713916415","12.874","13.543","13.718","0.844","0.175","3","261",NA
"95","R_2txR6PdFt4OQP0Q","standard","2","6","LP","2.15079707022835","14.727","16.894","17.312","2.585","0.418","3","264",NA
"96","R_2txR6PdFt4OQP0Q","standard","2","7","LP","13.0392072382594","18.314","NaN","20.51","2.196","NaN","0","264",NA
"97","R_2txR6PdFt4OQP0Q","standard","2","8","LP","2.15079707022835","21.516","NaN","23.406","1.89","NaN","0","264",NA
"98","R_2txR6PdFt4OQP0Q","standard","2","9","LP","1.25738905644119","24.42","25.687","26.159","1.739","0.472","3","267",NA
"99","R_2txR6PdFt4OQP0Q","standard","2","10","LP","1.25738905644119","27.173","28.437","28.855","1.682","0.418","3","270",NA
"100","R_2txR6PdFt4OQP0Q","standard","2","11","LP","2.15079707022835","29.876","NaN","31.679","1.803","NaN","0","270",NA
"101","R_2txR6PdFt4OQP0Q","standard","2","12","LP","3.49090909090909","32.694","NaN","35.23","2.536","NaN","0","270",NA
"102","R_2txR6PdFt4OQP0Q","standard","2","13","LP","30","36.234","NaN","38.022","1.788","NaN","0","270",NA
"103","R_2txR6PdFt4OQP0Q","standard","2","14","LP","19.8235243429556","39.032","NaN","41.431","2.399","NaN","0","270",NA
"104","R_2txR6PdFt4OQP0Q","standard","2","15","LP","1.25738905644119","42.441","43.706","44.111","1.67","0.405","3","273",NA
"105","R_2txR6PdFt4OQP0Q","standard","2","16","LP","2.15079707022835","45.123","47.278","47.28","2.157","0.002","3","276",NA
"106","R_2txR6PdFt4OQP0Q","standard","2","17","LP","19.8235243429556","48.295","NaN","50.68","2.385","NaN","0","276",NA
"107","R_2txR6PdFt4OQP0Q","standard","2","18","LP","3.49090909090909","51.7","NaN","53.879","2.179","NaN","0","276",NA
"108","R_2txR6PdFt4OQP0Q","standard","2","19","LP","13.0392072382594","54.888","NaN","56.838","1.95","NaN","0","276",NA
"109","R_2txR6PdFt4OQP0Q","standard","2","20","LP","8.51632916846187","57.841","NaN","59.743","1.902","NaN","0","276",NA
"110","R_2txR6PdFt4OQP0Q","standard","2","21","LP","3.49090909090909","60.756","NaN","62.759","2.003","NaN","0","276",NA
"111","R_2txR6PdFt4OQP0Q","standard","2","22","LP","13.0392072382594","63.765","NaN","65.934","2.169","NaN","0","276",NA
"112","R_2txR6PdFt4OQP0Q","standard","2","23","LP","1.25738905644119","66.936","68.2","68.615","1.679","0.415","3","279",NA
"113","R_2txR6PdFt4OQP0Q","standard","2","24","LP","8.51632916846187","69.619","NaN","72.422","2.803","NaN","0","279",NA
"114","R_2txR6PdFt4OQP0Q","standard","2","25","LP","3.49090909090909","73.424","NaN","75.311","1.887","NaN","0","279",NA
"115","R_2txR6PdFt4OQP0Q","standard","2","26","LP","1.25738905644119","76.323","77.594","78.038","1.715","0.444","3","282",NA
"116","R_2txR6PdFt4OQP0Q","standard","2","27","LP","30","79.045","NaN","81.446","2.401","NaN","0","282",NA
"117","R_2txR6PdFt4OQP0Q","standard","2","28","LP","5.5010771219302","82.461","NaN","84.615","2.154","NaN","0","282",NA
"118","R_2txR6PdFt4OQP0Q","standard","2","29","LP","3.49090909090909","85.621","NaN","87.905","2.284","NaN","0","282",NA
"119","R_2txR6PdFt4OQP0Q","standard","2","30","LP","30","88.907","NaN","91.191","2.284","NaN","0","282",NA
"120","R_2txR6PdFt4OQP0Q","standard","2","31","LP","2.15079707022835","92.21","94.381","94.759","2.549","0.378","3","285",NA
"121","R_2txR6PdFt4OQP0Q","standard","2","32","LP","13.0392072382594","95.783","NaN","98.233","2.45","NaN","0","285",NA
"122","R_2txR6PdFt4OQP0Q","standard","2","33","LP","2.15079707022835","99.237","NaN","100.599","1.362","NaN","0","285",NA
"123","R_2txR6PdFt4OQP0Q","standard","2","34","LP","8.51632916846187","101.619","NaN","103.958","2.339","NaN","0","285",NA
"124","R_2txR6PdFt4OQP0Q","standard","2","35","LP","0.661783713916415","104.976","105.644","106.199","1.223","0.555","3","288",NA
"125","R_2txR6PdFt4OQP0Q","standard","2","36","LP","30","107.211","NaN","109.743","2.532","NaN","0","288",NA
"126","R_2txR6PdFt4OQP0Q","standard","2","37","LP","3.49090909090909","110.749","NaN","112.965","2.216","NaN","0","288",NA
"127","R_2txR6PdFt4OQP0Q","standard","2","38","LP","13.0392072382594","113.985","NaN","116.199","2.214","NaN","0","288",NA
"128","R_2txR6PdFt4OQP0Q","standard","2","39","LP","13.0392072382594","117.216","NaN","119.478","2.262","NaN","0","288",NA
"129","R_2txR6PdFt4OQP0Q","standard","2","40","LP","1.25738905644119","120.493","121.771","122.248","1.755","0.477","3","291",NA
"130","R_2txR6PdFt4OQP0Q","standard","2","41","LP","19.8235243429556","123.257","NaN","126.343","3.086","NaN","0","291",NA
"131","R_2txR6PdFt4OQP0Q","standard","2","42","LP","8.51632916846187","127.367","NaN","129.671","2.304","NaN","0","291",NA
"132","R_2txR6PdFt4OQP0Q","standard","2","43","LP","0.264713485566566","130.688","130.971","131.479","0.791","0.508","3","294",NA
"133","R_2txR6PdFt4OQP0Q","standard","2","44","LP","8.51632916846187","132.488","NaN","134.856","2.368","NaN","0","294",NA
"134","R_2txR6PdFt4OQP0Q","standard","2","45","LP","30","135.861","NaN","137.582","1.721","NaN","0","294",NA
"135","R_2txR6PdFt4OQP0Q","standard","2","46","LP","0.264713485566566","138.594","138.88","139.431","0.837","0.551","3","297",NA
"136","R_2txR6PdFt4OQP0Q","standard","2","47","LP","2.15079707022835","140.443","142.598","142.679","2.236","0.081","3","300",NA
"137","R_2txR6PdFt4OQP0Q","standard","2","48","LP","0.661783713916415","143.7","144.369","144.896","1.196","0.527","3","303",NA
"138","R_2txR6PdFt4OQP0Q","standard","2","49","LP","5.5010771219302","145.902","NaN","148.223","2.321","NaN","0","303",NA
"139","R_2txR6PdFt4OQP0Q","standard","2","50","LP","13.0392072382594","149.225","NaN","150.902","1.677","NaN","0","303",NA
"140","R_2txR6PdFt4OQP0Q","standard","2","51","LP","1.25738905644119","151.909","153.178","153.63","1.721","0.452","3","306",NA
"141","R_2txR6PdFt4OQP0Q","standard","2","52","LP","0.264713485566566","154.642","154.913","155.584","0.942","0.671","3","309",NA
"142","R_2txR6PdFt4OQP0Q","standard","2","53","LP","0.661783713916415","156.598","157.284","157.783","1.185","0.499","3","312",NA
"143","R_2txR6PdFt4OQP0Q","standard","2","54","LP","19.8235243429556","158.8","NaN","161.087","2.287","NaN","0","312",NA
"144","R_2txR6PdFt4OQP0Q","standard","2","55","LP","0.661783713916415","162.104","162.787","163.326","1.222","0.539","3","315",NA
"145","R_2txR6PdFt4OQP0Q","standard","2","56","LP","0.264713485566566","164.336","164.607","165.127","0.791","0.52","3","318",NA
"146","R_2txR6PdFt4OQP0Q","standard","2","57","LP","30","166.129","NaN","168.024","1.895","NaN","0","318",NA
"147","R_2txR6PdFt4OQP0Q","standard","2","58","LP","13.0392072382594","169.03","NaN","170.526","1.496","NaN","0","318",NA
"148","R_2txR6PdFt4OQP0Q","standard","2","59","LP","19.8235243429556","171.535","NaN","173.086","1.551","NaN","0","318",NA
"149","R_2txR6PdFt4OQP0Q","standard","2","60","LP","3.49090909090909","174.101","NaN","176.127","2.026","NaN","0","318",NA
"150","R_2txR6PdFt4OQP0Q","standard","2","61","LP","2.15079707022835","177.133","NaN","179.241","2.108","NaN","0","318",NA
"151","R_2txR6PdFt4OQP0Q","standard","2","62","LP","30","180.243","NaN","182.295","2.052","NaN","0","318",NA
"152","R_2txR6PdFt4OQP0Q","standard","2","63","LP","5.5010771219302","183.311","NaN","186.055","2.744","NaN","0","318",NA
"153","R_2txR6PdFt4OQP0Q","standard","2","64","LP","30","187.061","NaN","189.175","2.114","NaN","0","318",NA
"154","R_2txR6PdFt4OQP0Q","standard","2","65","LP","8.51632916846187","190.185","NaN","192.321","2.136","NaN","0","318",NA
"155","R_2txR6PdFt4OQP0Q","standard","2","66","LP","2.15079707022835","193.324","195.49","195.911","2.587","0.421","3","321",NA
"156","R_2txR6PdFt4OQP0Q","standard","2","67","LP","0.661783713916415","196.924","197.594","198.087","1.163","0.493","3","324",NA
"157","R_2txR6PdFt4OQP0Q","standard","2","68","LP","8.51632916846187","199.096","NaN","201.351","2.255","NaN","0","324",NA
"158","R_2txR6PdFt4OQP0Q","standard","2","69","LP","8.51632916846187","202.367","NaN","204.871","2.504","NaN","0","324",NA
"159","R_2txR6PdFt4OQP0Q","standard","2","70","LP","0.661783713916415","205.888","206.571","206.983","1.095","0.412","3","327",NA
"160","R_2txR6PdFt4OQP0Q","standard","2","71","LP","5.5010771219302","207.989","NaN","210.719","2.73","NaN","0","327",NA
"161","R_2txR6PdFt4OQP0Q","standard","2","72","LP","0.661783713916415","211.729","212.409","212.886","1.157","0.477","3","330",NA
"162","R_2txR6PdFt4OQP0Q","standard","2","73","LP","13.0392072382594","213.895","NaN","216.345","2.45","NaN","0","330",NA
"163","R_2txR6PdFt4OQP0Q","standard","2","74","LP","19.8235243429556","217.351","NaN","220.007","2.656","NaN","0","330",NA
"164","R_2txR6PdFt4OQP0Q","standard","2","75","LP","0.264713485566566","221.019","221.304","221.767","0.748","0.463","3","333",NA
"165","R_2txR6PdFt4OQP0Q","standard","2","76","LP","5.5010771219302","222.773","NaN","225.631","2.858","NaN","0","333",NA
"166","R_2txR6PdFt4OQP0Q","standard","2","77","LP","8.51632916846187","226.639","NaN","229.865","3.226","NaN","0","333",NA
"167","R_2txR6PdFt4OQP0Q","standard","2","78","LP","30","230.882","NaN","235.407","4.525","NaN","0","333",NA
"168","R_2txR6PdFt4OQP0Q","standard","2","79","LP","1.25738905644119","236.42","237.689","238.119","1.699","0.43","3","336",NA
"169","R_2txR6PdFt4OQP0Q","standard","2","80","LP","3.49090909090909","239.125","NaN","241.313","2.188","NaN","0","336",NA
"170","R_2txR6PdFt4OQP0Q","standard","2","81","LP","0.661783713916415","242.324","242.993","243.487","1.163","0.494","3","339",NA
"171","R_2txR6PdFt4OQP0Q","standard","2","82","LP","8.51632916846187","244.495","NaN","249.222","4.727","NaN","0","339",NA
"172","R_2txR6PdFt4OQP0Q","standard","2","83","LP","30","250.232","NaN","252.058","1.826","NaN","0","339",NA
"173","R_2txR6PdFt4OQP0Q","standard","2","84","LP","3.49090909090909","253.072","NaN","255.863","2.791","NaN","0","339",NA
"174","R_2txR6PdFt4OQP0Q","standard","2","85","LP","19.8235243429556","256.875","NaN","259.118","2.243","NaN","0","339",NA
"175","R_2txR6PdFt4OQP0Q","standard","2","86","LP","8.51632916846187","260.125","NaN","262.704","2.579","NaN","0","339",NA
"176","R_2txR6PdFt4OQP0Q","standard","2","87","LP","3.49090909090909","263.716","NaN","266.567","2.851","NaN","0","339",NA
"177","R_2txR6PdFt4OQP0Q","standard","2","88","LP","5.5010771219302","267.587","NaN","270.127","2.54","NaN","0","339",NA
"178","R_2txR6PdFt4OQP0Q","standard","2","89","LP","0.661783713916415","271.132","271.807","272.271","1.139","0.464","3","342",NA
"179","R_2txR6PdFt4OQP0Q","standard","2","90","LP","0.264713485566566","273.277","273.557","274.024","0.747","0.467","3","345",NA
"180","R_2txR6PdFt4OQP0Q","standard","2","91","LP","5.5010771219302","275.032","NaN","276.91","1.878","NaN","0","345",NA
"181","R_2txR6PdFt4OQP0Q","standard","2","92","LP","1.25738905644119","277.915","279.184","279.615","1.7","0.431","3","348",NA
"182","R_2txR6PdFt4OQP0Q","standard","2","93","LP","13.0392072382594","280.618","NaN","282.447","1.829","NaN","0","348",NA
"183","R_2txR6PdFt4OQP0Q","standard","2","94","LP","1.25738905644119","283.456","284.717","285.118","1.662","0.401","3","351",NA
"184","R_2txR6PdFt4OQP0Q","standard","2","95","LP","0.264713485566566","286.128","286.406","286.895","0.767","0.489","3","354",NA
"185","R_2txR6PdFt4OQP0Q","standard","2","96","LP","0.661783713916415","287.908","288.578","289.022","1.114","0.444","3","357",NA
"186","R_2txR6PdFt4OQP0Q","standard","2","97","LP","3.49090909090909","290.042","NaN","291.863","1.821","NaN","0","357",NA
"187","R_2txR6PdFt4OQP0Q","standard","2","98","LP","0.264713485566566","292.883","293.149","293.622","0.739","0.473","3","360",NA
"188","R_2txR6PdFt4OQP0Q","standard","2","99","LP","13.0392072382594","294.632","NaN","295.735","1.103","NaN","0","360",NA
"189","R_2txR6PdFt4OQP0Q","standard","2","100","LP","2.15079707022835","296.75","NaN","298.359","1.609","NaN","0","360",NA
"190","R_2txR6PdFt4OQP0Q","standard","2","101","LP","30","299.374","NaN","301.167","1.793","NaN","0","360",NA
"191","R_2txR6PdFt4OQP0Q","standard","2","102","LP","19.8235243429556","302.176","NaN","304.103","1.927","NaN","0","360",NA
"192","R_2txR6PdFt4OQP0Q","standard","2","103","LP","2.15079707022835","305.112","NaN","307.208","2.096","NaN","0","360",NA
"193","R_2txR6PdFt4OQP0Q","standard","2","104","LP","19.8235243429556","308.215","NaN","310.479","2.264","NaN","0","360",NA
"194","R_2txR6PdFt4OQP0Q","standard","2","105","LP","19.8235243429556","311.488","NaN","314.343","2.855","NaN","0","360",NA
"195","R_2txR6PdFt4OQP0Q","standard","2","106","LP","0.264713485566566","315.352","315.626","316.079","0.727","0.453","3","363",NA
"196","R_2txR6PdFt4OQP0Q","standard","2","107","LP","0.264713485566566","317.092","317.377","317.791","0.699","0.414","3","366",NA
"197","R_2txR6PdFt4OQP0Q","standard","2","108","LP","19.8235243429556","318.81","NaN","321.247","2.437","NaN","0","366",NA
"198","R_2txR6PdFt4OQP0Q","standard","2","109","LP","30","322.261","NaN","324.279","2.018","NaN","0","366",NA
"199","R_2txR6PdFt4OQP0Q","standard","2","110","LP","13.0392072382594","325.285","NaN","327.463","2.178","NaN","0","366",NA
"200","R_2txR6PdFt4OQP0Q","standard","2","111","LP","0.264713485566566","328.469","328.737","329.161","0.692","0.424","3","369",NA
"201","R_2txR6PdFt4OQP0Q","standard","2","112","LP","8.51632916846187","330.174","NaN","332.735","2.561","NaN","0","369",NA
"202","R_2txR6PdFt4OQP0Q","standard","2","113","LP","0.661783713916415","333.742","334.412","334.831","1.089","0.419","3","372",NA
"203","R_2txR6PdFt4OQP0Q","standard","2","114","LP","2.15079707022835","335.832","NaN","337.599","1.767","NaN","0","372",NA
"204","R_2txR6PdFt4OQP0Q","standard","2","115","LP","13.0392072382594","338.616","NaN","340.241","1.625","NaN","0","372",NA
"205","R_2txR6PdFt4OQP0Q","standard","2","116","LP","2.15079707022835","341.249","NaN","343.238","1.989","NaN","0","372",NA
"206","R_2txR6PdFt4OQP0Q","standard","2","117","LP","13.0392072382594","344.241","NaN","346.256","2.015","NaN","0","372",NA
"207","R_2txR6PdFt4OQP0Q","standard","2","118","LP","30","347.276","NaN","349.414","2.138","NaN","0","372",NA
"208","R_2txR6PdFt4OQP0Q","standard","2","119","LP","1.25738905644119","350.426","351.697","352.105","1.679","0.408","3","375",NA
"209","R_2txR6PdFt4OQP0Q","standard","2","120","LP","0.661783713916415","353.114","353.783","354.247","1.133","0.464","3","378",NA
"210","R_2txR6PdFt4OQP0Q","standard","2","121","LP","19.8235243429556","355.253","NaN","357.815","2.562","NaN","0","378",NA
"211","R_2txR6PdFt4OQP0Q","standard","2","122","LP","8.51632916846187","358.823","NaN","361.079","2.256","NaN","0","378",NA
"212","R_2txR6PdFt4OQP0Q","standard","2","123","LP","30","362.092","NaN","365.185","3.093","NaN","0","378",NA
"213","R_2txR6PdFt4OQP0Q","standard","2","124","LP","5.5010771219302","366.196","NaN","368.759","2.563","NaN","0","378",NA
"214","R_2txR6PdFt4OQP0Q","standard","2","125","LP","3.49090909090909","369.769","NaN","371.959","2.19","NaN","0","378",NA
"215","R_2txR6PdFt4OQP0Q","standard","2","126","LP","8.51632916846187","372.972","NaN","375.647","2.675","NaN","0","378",NA
"216","R_2txR6PdFt4OQP0Q","standard","2","127","LP","13.0392072382594","376.653","NaN","379.03","2.377","NaN","0","378",NA
"217","R_2txR6PdFt4OQP0Q","standard","2","128","LP","0.264713485566566","380.043","380.311","380.719","0.676","0.408","3","381",NA
"218","R_2txR6PdFt4OQP0Q","standard","2","129","LP","0.661783713916415","381.728","382.398","382.823","1.095","0.425","3","384",NA
"219","R_2txR6PdFt4OQP0Q","standard","2","130","LP","3.49090909090909","383.83","NaN","385.983","2.153","NaN","0","384",NA
"220","R_2txR6PdFt4OQP0Q","standard","2","131","LP","13.0392072382594","387.003","NaN","389.798","2.795","NaN","0","384",NA
"221","R_2txR6PdFt4OQP0Q","standard","2","132","LP","2.15079707022835","390.806","392.976","393.391","2.585","0.415","3","387",NA
"222","R_2txR6PdFt4OQP0Q","standard","2","133","LP","8.51632916846187","394.409","NaN","397.219","2.81","NaN","0","387",NA
"223","R_2txR6PdFt4OQP0Q","standard","2","134","LP","2.15079707022835","398.221","400.385","400.839","2.618","0.454","3","390",NA
"224","R_2txR6PdFt4OQP0Q","standard","2","135","LP","19.8235243429556","401.849","NaN","404.599","2.75","NaN","0","390",NA
"225","R_2txR6PdFt4OQP0Q","standard","2","136","LP","13.0392072382594","405.607","NaN","408.514","2.907","NaN","0","390",NA
"226","R_2txR6PdFt4OQP0Q","standard","2","137","LP","19.8235243429556","409.517","NaN","413.167","3.65","NaN","0","390",NA
"227","R_2txR6PdFt4OQP0Q","standard","2","138","LP","3.49090909090909","414.182","NaN","417.064","2.882","NaN","0","390",NA
"228","R_2txR6PdFt4OQP0Q","standard","2","139","LP","1.25738905644119","418.072","NaN","419.161","1.089","NaN","0","390",NA
"229","R_2txR6PdFt4OQP0Q","standard","2","140","LP","5.5010771219302","420.174","NaN","422.344","2.17","NaN","0","390",NA
"230","R_2txR6PdFt4OQP0Q","standard","2","141","LP","5.5010771219302","423.354","NaN","426.328","2.974","NaN","0","390",NA
"231","R_2txR6PdFt4OQP0Q","standard","2","142","LP","1.25738905644119","427.332","428.598","429.039","1.707","0.441","3","393",NA
"232","R_2txR6PdFt4OQP0Q","standard","2","143","LP","30","430.047","NaN","432.827","2.78","NaN","0","393",NA
"233","R_2txR6PdFt4OQP0Q","standard","2","144","LP","0.264713485566566","433.851","434.12","434.583","0.732","0.463","3","396",NA
"234","R_2txR6PdFt4OQP0Q","standard","2","145","LP","19.8235243429556","435.59","NaN","438.423","2.833","NaN","0","396",NA
"235","R_2txR6PdFt4OQP0Q","standard","2","146","LP","13.0392072382594","439.43","NaN","442.816","3.386","NaN","0","396",NA
"236","R_2txR6PdFt4OQP0Q","standard","2","147","LP","30","443.819","NaN","447.431","3.612","NaN","0","396",NA
"237","R_2txR6PdFt4OQP0Q","standard","2","148","LP","8.51632916846187","448.439","NaN","452.191","3.752","NaN","0","396",NA
"238","R_2txR6PdFt4OQP0Q","standard","2","149","LP","1.25738905644119","453.208","454.478","454.943","1.735","0.465","3","399",NA
"239","R_2txR6PdFt4OQP0Q","standard","2","150","LP","0.264713485566566","455.963","456.229","456.75","0.787","0.521","3","402",NA
"240","R_2txR6PdFt4OQP0Q","standard","2","151","LP","8.51632916846187","457.76","NaN","462.247","4.487","NaN","0","402",NA
"241","R_2txR6PdFt4OQP0Q","standard","2","152","LP","0.661783713916415","463.255","463.923","464.375","1.12","0.452","3","405",NA
"242","R_2txR6PdFt4OQP0Q","standard","2","153","LP","2.15079707022835","465.388","NaN","467.264","1.876","NaN","0","405",NA
"243","R_2txR6PdFt4OQP0Q","standard","2","154","LP","30","468.27","NaN","469.503","1.233","NaN","0","405",NA
"244","R_2txR6PdFt4OQP0Q","standard","2","155","LP","5.5010771219302","470.511","NaN","471.703","1.192","NaN","0","405",NA
"245","R_2txR6PdFt4OQP0Q","standard","2","156","LP","30","472.715","NaN","474.063","1.348","NaN","0","405",NA
"246","R_2txR6PdFt4OQP0Q","standard","2","157","LP","19.8235243429556","475.084","NaN","476.342","1.258","NaN","0","405",NA
"247","R_2txR6PdFt4OQP0Q","standard","2","158","LP","0.661783713916415","477.371","478.036","478.44","1.069","0.404","3","408",NA
"248","R_2txR6PdFt4OQP0Q","standard","2","159","LP","2.15079707022835","479.451","NaN","480.543","1.092","NaN","0","408",NA
"249","R_2txR6PdFt4OQP0Q","standard","2","160","LP","13.0392072382594","481.552","NaN","482.632","1.08","NaN","0","408",NA
"250","R_2txR6PdFt4OQP0Q","standard","2","161","LP","0.264713485566566","483.637","483.91","484.376","0.739","0.466","3","411",NA
"251","R_2txR6PdFt4OQP0Q","standard","2","162","LP","30","485.394","NaN","486.408","1.014","NaN","0","411",NA
"252","R_2txR6PdFt4OQP0Q","standard","2","163","LP","0.661783713916415","487.413","488.082","488.4","0.987","0.318","3","414",NA
"253","R_2txR6PdFt4OQP0Q","standard","2","164","LP","5.5010771219302","489.415","NaN","490.239","0.824","NaN","0","414",NA
"254","R_2txR6PdFt4OQP0Q","standard","2","165","LP","30","491.248","NaN","492.648","1.4","NaN","0","414",NA
"255","R_2txR6PdFt4OQP0Q","standard","2","166","LP","5.5010771219302","493.671","NaN","494.642","0.971","NaN","0","414",NA
"256","R_2txR6PdFt4OQP0Q","standard","2","167","LP","0.661783713916415","495.651","496.32","496.663","1.012","0.343","3","417",NA
"257","R_2txR6PdFt4OQP0Q","standard","2","168","LP","2.15079707022835","497.676","NaN","498.808","1.132","NaN","0","417",NA
"258","R_2txR6PdFt4OQP0Q","standard","2","169","LP","5.5010771219302","499.81","NaN","501.136","1.326","NaN","0","417",NA
"259","R_2txR6PdFt4OQP0Q","standard","2","170","LP","13.0392072382594","502.143","NaN","503.32","1.177","NaN","0","417",NA
"260","R_2txR6PdFt4OQP0Q","standard","2","171","LP","19.8235243429556","504.33","NaN","505.923","1.593","NaN","0","417",NA
"261","R_2txR6PdFt4OQP0Q","standard","2","172","LP","2.15079707022835","506.925","NaN","508.304","1.379","NaN","0","417",NA
"262","R_2txR6PdFt4OQP0Q","standard","2","173","LP","3.49090909090909","509.307","NaN","510.809","1.502","NaN","0","417",NA
"263","R_2txR6PdFt4OQP0Q","standard","2","174","LP","5.5010771219302","511.811","NaN","513.631","1.82","NaN","0","417",NA
"264","R_2txR6PdFt4OQP0Q","standard","2","175","LP","0.264713485566566","514.643","514.91","515.448","0.805","0.538","3","420",NA
"265","R_2txR6PdFt4OQP0Q","standard","2","176","LP","1.25738905644119","516.459","517.728","517.967","1.508","0.239","3","423",NA
"266","R_2txR6PdFt4OQP0Q","standard","2","177","LP","1.25738905644119","518.982","NaN","520.15","1.168","NaN","0","423",NA
"267","R_2txR6PdFt4OQP0Q","standard","2","178","LP","13.0392072382594","521.163","NaN","522.631","1.468","NaN","0","423",NA
"268","R_2txR6PdFt4OQP0Q","standard","2","179","LP","0.264713485566566","523.639","523.905","524.376","0.737","0.471","3","426",NA
"269","R_2txR6PdFt4OQP0Q","standard","2","180","LP","19.8235243429556","525.388","NaN","526.624","1.236","NaN","0","426",NA
"270","R_2txR6PdFt4OQP0Q","standard","2","181","LP","13.0392072382594","527.627","NaN","529.375","1.748","NaN","0","426",NA
"271","R_2txR6PdFt4OQP0Q","standard","2","182","LP","3.49090909090909","530.395","NaN","531.879","1.484","NaN","0","426",NA
"272","R_2txR6PdFt4OQP0Q","standard","2","183","LP","30","532.897","NaN","534.359","1.462","NaN","0","426",NA
"273","R_2txR6PdFt4OQP0Q","standard","2","184","LP","13.0392072382594","535.367","NaN","537.43","2.063","NaN","0","426",NA
"274","R_2txR6PdFt4OQP0Q","standard","2","185","LP","0.264713485566566","538.439","538.704","539.142","0.703","0.438","3","429",NA
"275","R_2txR6PdFt4OQP0Q","standard","2","186","LP","1.25738905644119","540.15","541.409","541.769","1.619","0.36","3","432",NA
"276","R_2txR6PdFt4OQP0Q","standard","2","187","LP","5.5010771219302","542.775","NaN","544.359","1.584","NaN","0","432",NA
"277","R_2txR6PdFt4OQP0Q","standard","2","188","LP","3.49090909090909","545.377","NaN","547.048","1.671","NaN","0","432",NA
"278","R_2txR6PdFt4OQP0Q","standard","2","189","LP","2.15079707022835","548.058","NaN","549.584","1.526","NaN","0","432",NA
"279","R_2txR6PdFt4OQP0Q","standard","2","190","LP","3.49090909090909","550.6","NaN","552.382","1.782","NaN","0","432",NA
"280","R_2txR6PdFt4OQP0Q","standard","2","191","LP","30","553.413","NaN","555.095","1.682","NaN","0","432",NA
"281","R_2txR6PdFt4OQP0Q","standard","2","192","LP","0.661783713916415","556.106","556.774","557.263","1.157","0.489","3","435",NA
"282","R_2txR6PdFt4OQP0Q","standard","2","193","LP","13.0392072382594","558.275","NaN","560.438","2.163","NaN","0","435",NA
"283","R_2txR6PdFt4OQP0Q","standard","2","194","LP","13.0392072382594","561.459","NaN","563.583","2.124","NaN","0","435",NA
"284","R_2txR6PdFt4OQP0Q","standard","2","195","LP","2.15079707022835","564.597","NaN","566.231","1.634","NaN","0","435",NA
"285","R_2txR6PdFt4OQP0Q","standard","2","196","LP","8.51632916846187","567.247","NaN","569.415","2.168","NaN","0","435",NA
"286","R_2txR6PdFt4OQP0Q","standard","2","197","LP","2.15079707022835","570.422","NaN","572.167","1.745","NaN","0","435",NA
"287","R_2txR6PdFt4OQP0Q","standard","2","198","LP","3.49090909090909","573.176","NaN","575.016","1.84","NaN","0","435",NA
"288","R_2txR6PdFt4OQP0Q","standard","2","199","LP","8.51632916846187","576.018","NaN","578.111","2.093","NaN","0","435",NA
"289","R_2txR6PdFt4OQP0Q","standard","2","200","LP","0.661783713916415","579.114","579.782","580.43","1.316","0.648","3","438",NA
"290","R_2txR6PdFt4OQP0Q","standard","2","201","LP","8.51632916846187","581.445","NaN","582.503","1.058","NaN","0","438",NA
"291","R_2txR6PdFt4OQP0Q","standard","2","202","LP","5.5010771219302","583.516","NaN","585.281","1.765","NaN","0","438",NA
"292","R_2txR6PdFt4OQP0Q","standard","2","203","LP","0.661783713916415","586.289","586.974","587.535","1.246","0.561","3","441",NA
"293","R_2txR6PdFt4OQP0Q","standard","2","204","LP","19.8235243429556","588.56","NaN","589.887","1.327","NaN","0","441",NA
"294","R_2txR6PdFt4OQP0Q","standard","2","205","LP","0.264713485566566","590.894","591.179","591.728","0.834","0.549","3","444",NA
"295","R_2txR6PdFt4OQP0Q","standard","2","206","LP","13.0392072382594","592.732","NaN","593.632","0.9","NaN","0","444",NA
"296","R_2txR6PdFt4OQP0Q","standard","2","207","LP","2.15079707022835","594.635","NaN","595.736","1.101","NaN","0","444",NA
"297","R_2txR6PdFt4OQP0Q","standard","2","208","LP","19.8235243429556","596.737","NaN","598.072","1.335","NaN","0","444",NA
