"","subject_id","condition","n_block","n_trialIdx","f_timing_condition","n_scheduled_delay","n_trial_start_time","n_rewarded_time_fin","n_sell_time_fin","n_time_waited_fin","RT_fin","n_trial_earnings_fin","n_total_earnings_fin","keypress_times"
"1","R_2UbDaFr8X42TjQi","standard","1","1","LP","2.15079707022835","0.002","2.154","NA","3.161","NA","0","0",""
"2","R_2UbDaFr8X42TjQi","standard","1","2","LP","5.5010771219302","4.169","9.691","9.931","5.762","0.24","3","3","c(""270"", ""868"", ""1754"", ""2316"", ""2883"", ""3499"", ""4100"", ""4717"", ""5283"")"
"3","R_2UbDaFr8X42TjQi","standard","1","3","LP","0.264713485566566","10.937","11.221","11.91","0.973","0.689","3","6",""
"4","R_2UbDaFr8X42TjQi","standard","1","4","LP","8.51632916846187","12.917","21.45","NA","9.548","NA","0","0","c(""137"", ""1761"", ""1967"", ""2213"", ""2445"", ""2684"", ""2909"", ""3135"", ""3725"", ""4312"", ""4966"", ""5199"", ""5373"", ""5867"", ""6035"", ""6205"", ""6669"", ""6965"", ""7183"", ""8408"")"
"5","R_2UbDaFr8X42TjQi","standard","1","5","LP","5.5010771219302","23.442","28.956","29.116","5.674","0.16","3","3","c(""89"", ""1726"", ""2041"", ""2257"", ""2488"", ""2742"", ""3018"", ""3298"", ""3827"", ""4323"", ""4809"", ""5041"")"
"6","R_2UbDaFr8X42TjQi","standard","1","6","LP","1.25738905644119","30.119","31.382","31.42","1.301","0.038","3","3","c(""119"", ""1046"")"
"7","R_2UbDaFr8X42TjQi","standard","1","7","LP","5.5010771219302","32.433","37.95","38.179","5.746","0.229","3","3","c(""161"", ""700"", ""1235"", ""1613"", ""1826"", ""3357"", ""3594"", ""3849"", ""4386"", ""4818"", ""5302"")"
"8","R_2UbDaFr8X42TjQi","standard","1","8","LP","13.0392072382594","39.198","52.263","52.383","13.185","0.12","3","3","c(""453"", ""884"", ""1353"", ""1764"", ""2155"", ""2563"", ""2952"", ""3323"", ""3701"", ""4084"", ""4446"", ""4835"", ""5197"", ""5546"", ""5904"", ""6252"", ""6615"", ""6970"", ""7324"", ""7676"", ""8068"", ""8420"", ""8785"", ""9168"", ""9545"", ""10810"", ""11032"", ""11817"", ""12469"")"
"9","R_2UbDaFr8X42TjQi","standard","1","9","LP","1.25738905644119","53.414","54.675","54.768","1.354","0.093","3","3","c(""213"", ""794"")"
"10","R_2UbDaFr8X42TjQi","standard","1","10","LP","8.51632916846187","55.783","64.317","64.577","8.794","0.26","3","3","c(""153"", ""710"", ""1233"", ""1738"", ""2276"", ""2779"", ""3275"", ""3714"", ""4155"", ""4603"", ""5022"", ""5447"", ""5915"", ""6383"", ""6897"", ""7345"", ""7814"", ""8331"")"
"11","R_2UbDaFr8X42TjQi","standard","1","11","LP","30","65.585","95.606","95.611","30.026","0.005","3","3","c(""398"", ""846"", ""1295"", ""1712"", ""2159"", ""2582"", ""3022"", ""3445"", ""3875"", ""4318"", ""4769"", ""5177"", ""5615"", ""6014"", ""6455"", ""6881"", ""7280"", ""7720"", ""8195"", ""8645"", ""9085"", ""13188"", ""13416"", ""14045"", ""14648"", ""15296"", ""15830"", ""16311"", ""16844"", ""17398"", ""17852"", ""18335"", ""18797"", ""19269"", ""19696"", ""20151"", ""20574"", ""20980"", ""22078"", ""22326"", ""22543"", ""22775"", ""22991"", ""23206"", ""23458"", ""23676"", ""23911"", ""24149"", ""24391"", ""24640"", ""24868"", ""25096"", ""25335"", ""25572"", ""25797"", ""26069"", ""26279"", ""26550"", 
""26796"", ""27042"", ""27279"", ""27516"", ""27765"", ""27997"", ""28242"", ""28480"", ""28811"", ""29196"", ""29596"")"
"12","R_2UbDaFr8X42TjQi","standard","1","12","LP","2.15079707022835","96.615","98.778","98.944","2.329","0.166","3","3","c(""6"", ""380"", ""765"", ""1150"", ""1566"", ""1942"")"
"13","R_2UbDaFr8X42TjQi","standard","1","13","LP","8.51632916846187","99.947","108.489","108.623","8.676","0.134","3","3","c(""195"", ""594"", ""995"", ""1534"", ""1915"", ""2334"", ""2731"", ""3133"", ""3539"", ""3935"", ""4879"", ""5534"", ""6285"", ""6906"", ""7517"", ""7934"", ""8289"")"
"14","R_2UbDaFr8X42TjQi","standard","1","14","LP","30","109.626","139.669","139.732","30.106","0.063","3","3","c(""139"", ""518"", ""900"", ""1257"", ""1627"", ""2011"", ""2403"", ""2755"", ""3131"", ""3454"", ""3838"", ""4217"", ""4621"", ""5003"", ""5418"", ""5810"", ""6170"", ""6571"", ""6995"", ""7354"", ""7737"", ""8098"", ""8493"", ""8853"", ""9225"", ""9628"", ""10034"", ""10428"", ""10817"", ""11186"", ""11593"", ""11938"", ""12338"", ""12736"", ""13106"", ""13511"", ""13885"", ""14253"", ""14706"", ""15122"", ""15489"", ""15905"", ""16353"", ""16736"", ""17121"", ""17554"", ""17953"", ""18164"", ""18609"", ""18754"", ""19170"", ""19384"", ""19769"", ""19953"", ""20305"", ""20669"", ""21070"", ""21469"", ""21714"", 
""21952"", ""22194"", ""22419"", ""23521"", ""23906"", ""24238"", ""24521"", ""24898"", ""25217"", ""25621"", ""26039"", ""26475"", ""26929"", ""27311"", ""27736"", ""28154"", ""28521"", ""28896"", ""29353"", ""29717"")"
"15","R_2UbDaFr8X42TjQi","standard","1","15","LP","13.0392072382594","140.738","153.799","153.922","13.184","0.123","3","3","c(""191"", ""482"", ""798"", ""1130"", ""1525"", ""1856"", ""2225"", ""2640"", ""3047"", ""5185"", ""5740"", ""6639"", ""6894"", ""7140"", ""7424"", ""7688"", ""7959"", ""8345"", ""9255"", ""9896"", ""11088"", ""12297"", ""12671"", ""12941"")"
"16","R_2UbDaFr8X42TjQi","standard","1","16","LP","0.264713485566566","154.93","155.21","155.494","0.564","0.284","3","6",""
"17","R_2UbDaFr8X42TjQi","standard","1","17","LP","3.49090909090909","156.511","160.016","160.178","3.667","0.162","3","3","c(""668"", ""1339"", ""1654"", ""2010"", ""2802"", ""3185"")"
"18","R_2UbDaFr8X42TjQi","standard","1","18","LP","5.5010771219302","161.209","166.731","167.043","5.834","0.312","3","3","c(""87"", ""762"", ""1070"", ""1367"", ""2147"", ""2519"", ""2885"", ""3253"", ""3670"", ""4169"", ""4576"", ""4884"", ""5284"")"
"19","R_2UbDaFr8X42TjQi","standard","1","19","LP","0.661783713916415","168.047","168.713","168.848","0.801","0.135","3","3","97"
"20","R_2UbDaFr8X42TjQi","standard","1","20","LP","13.0392072382594","169.849","182.898","182.948","13.099","0.05","3","3","c(""784"", ""1385"", ""2016"", ""2629"", ""3261"", ""3990"", ""5208"", ""5598"", ""6110"", ""6583"", ""7129"", ""7444"", ""7993"", ""8441"", ""9368"", ""10194"", ""10674"", ""11128"", ""11597"", ""12099"", ""12589"")"
"21","R_2UbDaFr8X42TjQi","standard","1","21","LP","8.51632916846187","183.96","192.507","192.577","8.617","0.07","3","3","c(""433"", ""904"", ""1383"", ""1969"", ""2367"", ""2968"", ""3398"", ""3833"", ""4248"", ""4611"", ""5176"", ""5432"", ""5716"", ""5993"", ""6237"", ""6520"", ""6894"", ""7159"", ""7406"", ""7737"", ""8079"", ""8314"")"
"22","R_2UbDaFr8X42TjQi","standard","1","22","LP","2.15079707022835","193.591","195.753","196.133","2.542","0.38","3","3","c(""135"", ""385"", ""848"", ""1159"", ""1486"", ""1865"", ""2151"")"
"23","R_2UbDaFr8X42TjQi","standard","1","23","LP","0.264713485566566","197.136","197.405","197.527","0.391","0.122","3","6",""
"24","R_2UbDaFr8X42TjQi","standard","1","24","LP","3.49090909090909","198.529","202.03","202.259","3.73","0.229","3","3","c(""196"", ""478"", ""760"", ""1006"", ""1260"", ""1646"", ""1898"", ""2616"", ""2964"")"
"25","R_2UbDaFr8X42TjQi","standard","1","25","LP","19.8235243429556","203.265","223.109","223.163","19.898","0.054","3","3","c(""779"", ""1551"", ""2304"", ""3253"", ""4069"", ""4867"", ""5461"", ""5795"", ""6875"", ""7126"", ""7819"", ""8270"", ""8881"", ""9574"", ""10082"", ""10463"", ""10843"", ""11227"", ""11601"", ""12425"", ""12820"", ""13709"", ""14117"", ""14521"", ""14892"", ""15310"", ""15728"", ""16140"", ""16488"", ""16809"", ""17209"", ""17619"", ""18065"", ""18292"", ""18467"", ""18909"", ""19309"", ""19710"")"
"26","R_2UbDaFr8X42TjQi","standard","1","26","LP","8.51632916846187","224.192","232.724","232.916","8.724","0.192","3","3","c(""140"", ""586"", ""814"", ""999"", ""1383"", ""1859"", ""2266"", ""2500"", ""2721"", ""3121"", ""3538"", ""4014"", ""4214"", ""4394"", ""4857"", ""5283"", ""5770"", ""5949"", ""6145"", ""6368"", ""6690"", ""7140"", ""7571"", ""7998"", ""8485"")"
"27","R_2UbDaFr8X42TjQi","standard","1","27","LP","3.49090909090909","233.92","237.424","237.491","3.571","0.067","3","3","c(""154"", ""602"", ""1070"", ""1464"", ""1890"", ""2329"", ""2754"", ""3146"")"
"28","R_2UbDaFr8X42TjQi","standard","1","28","LP","30","238.509","268.528","268.56","30.051","0.032","3","3","c(""317"", ""805"", ""1187"", ""1645"", ""1881"", ""2326"", ""2686"", ""3065"", ""3520"", ""3945"", ""4398"", ""4803"", ""5249"", ""5694"", ""6150"", ""6541"", ""6925"", ""7332"", ""7696"", ""8150"", ""8696"", ""9481"", ""10301"", ""10749"", ""11171"", ""11580"", ""12081"", ""12480"", ""12848"", ""13219"", ""14046"", ""14238"", ""15548"", ""15979"", ""16366"", ""16765"", ""17164"", ""17549"", ""17963"", ""18671"", ""19064"", ""19473"", ""19898"", ""20547"", ""21245"", ""21468"", ""21780"", ""22077"", ""22404"", ""22722"", ""23025"", ""23347"", ""23648"", ""24281"", ""24664"", ""25092"", ""25437"", ""25781"", ""26139"", 
""26515"", ""26864"", ""27230"", ""27562"", ""27886"", ""28234"", ""28592"", ""28964"", ""29330"", ""29679"")"
"29","R_2UbDaFr8X42TjQi","standard","1","29","LP","2.15079707022835","269.572","271.73","272.113","2.541","0.383","3","3","c(""18"", ""363"", ""682"", ""1031"", ""1384"", ""1757"", ""2123"")"
"30","R_2UbDaFr8X42TjQi","standard","1","30","LP","13.0392072382594","273.122","286.191","286.277","13.155","0.086","3","3","c(""327"", ""667"", ""1017"", ""1335"", ""1725"", ""2081"", ""2480"", ""2854"", ""3150"", ""3477"", ""3834"", ""4152"", ""4328"", ""4743"", ""4909"", ""5251"", ""5835"", ""6165"", ""6350"", ""6666"", ""7267"", ""7636"", ""7829"", ""8140"", ""8511"", ""8835"", ""9166"", ""9524"", ""9882"", ""10229"", ""10582"", ""10899"", ""11325"", ""11603"", ""12406"")"
"31","R_2UbDaFr8X42TjQi","standard","1","31","LP","1.25738905644119","287.289","288.553","288.642","1.353","0.089","3","3","c(""389"", ""699"", ""1029"")"
"32","R_2UbDaFr8X42TjQi","standard","1","32","LP","2.15079707022835","289.649","291.803","291.832","2.183","0.029","3","3","c(""116"", ""380"", ""692"", ""978"", ""1286"", ""1597"", ""1854"")"
"33","R_2UbDaFr8X42TjQi","standard","1","33","LP","19.8235243429556","292.835","312.685","312.942","20.107","0.257","3","3","c(""216"", ""516"", ""788"", ""1076"", ""1352"", ""1635"", ""1898"", ""2819"", ""3113"", ""3352"", ""3599"", ""3811"", ""4048"", ""4314"", ""4769"", ""4970"", ""5242"", ""5836"", ""6489"", ""6761"", ""7235"", ""7514"", ""7752"", ""8227"", ""8491"", ""9700"", ""10748"", ""11499"", ""11820"", ""12121"", ""12475"", ""12785"", ""13095"", ""13343"", ""13608"", ""13853"", ""14121"", ""14369"", ""14937"", ""15523"", ""15767"", ""16499"", ""17712"", ""18785"", ""19817"")"
"34","R_2UbDaFr8X42TjQi","standard","1","34","LP","5.5010771219302","313.945","319.46","320.047","6.102","0.587","3","3","c(""430"", ""742"", ""1020"", ""2100"", ""2373"", ""2683"", ""2908"", ""3276"", ""3609"", ""3953"", ""4277"", ""4988"")"
"35","R_2UbDaFr8X42TjQi","standard","1","35","LP","3.49090909090909","321.049","324.557","324.741","3.692","0.184","3","3","c(""400"", ""736"", ""1021"", ""1305"", ""1641"", ""1938"", ""2317"", ""2621"", ""2926"", ""3195"", ""3421"")"
"36","R_2UbDaFr8X42TjQi","standard","1","36","LP","0.264713485566566","325.745","326.02","326.163","0.418","0.143","3","3","141"
"37","R_2UbDaFr8X42TjQi","standard","1","37","LP","13.0392072382594","327.187","340.244","340.355","13.168","0.111","3","3","c(""86"", ""392"", ""672"", ""946"", ""1235"", ""1501"", ""1789"", ""2067"", ""2368"", ""2680"", ""3033"", ""3299"", ""3567"", ""3983"", ""4162"", ""4455"", ""4730"", ""4993"", ""5267"", ""5584"", ""5873"", ""6441"", ""6819"", ""7064"", ""7469"", ""7683"", ""8267"", ""8510"", ""8799"", ""9088"", ""9360"", ""9666"", ""9951"", ""10237"", ""10541"", ""10817"", ""11463"", ""11744"", ""12032"", ""12376"", ""12586"")"
"38","R_2UbDaFr8X42TjQi","standard","1","38","LP","19.8235243429556","341.36","361.202","361.451","20.091","0.249","3","3","c(""210"", ""511"", ""810"", ""1126"", ""1409"", ""1674"", ""1964"", ""2240"", ""2527"", ""2802"", ""3364"", ""3690"", ""3994"", ""4291"", ""4571"", ""4979"", ""5211"", ""5474"", ""5722"", ""6125"", ""6387"", ""6677"", ""6994"", ""7280"", ""7524"", ""7792"", ""8094"", ""8353"", ""8626"", ""8920"", ""9795"", ""10193"", ""11594"", ""11927"", ""12264"", ""12567"", ""12890"", ""13204"", ""13947"", ""14399"", ""15096"", ""15394"", ""15705"", ""16035"", ""16288"", ""16562"", ""16864"", ""17142"", ""17809"", ""18530"", ""19282"", ""19793"")"
"39","R_2UbDaFr8X42TjQi","standard","1","39","LP","1.25738905644119","362.469","363.729","364.086","1.617","0.357","3","3","c(""781"", ""1100"")"
"40","R_2UbDaFr8X42TjQi","standard","1","40","LP","1.25738905644119","365.101","366.374","366.441","1.34","0.067","3","3","c(""201"", ""468"", ""762"", ""1043"")"
"41","R_2UbDaFr8X42TjQi","standard","1","41","LP","0.264713485566566","367.448","367.717","367.737","0.289","0.02","3","6",""
"42","R_2UbDaFr8X42TjQi","standard","1","42","LP","8.51632916846187","368.745","377.278","377.45","8.705","0.172","3","3","c(""290"", ""557"", ""808"", ""1088"", ""1384"", ""1652"", ""1940"", ""2214"", ""2498"", ""2784"", ""3073"", ""3340"", ""3598"", ""3886"", ""4140"", ""4405"", ""4673"", ""4956"", ""5191"", ""5439"", ""5704"", ""5991"", ""6255"", ""6511"", ""6791"", ""7040"", ""7304"", ""7525"", ""7817"", ""8103"", ""8383"")"
"43","R_2UbDaFr8X42TjQi","standard","1","43","LP","0.264713485566566","378.457","378.723","378.82","0.363","0.097","3","3","96"
"44","R_2UbDaFr8X42TjQi","standard","1","44","LP","30","379.823","409.839","409.87","30.047","0.031","3","3","c(""60"", ""343"", ""609"", ""873"", ""1146"", ""1433"", ""1717"", ""2010"", ""2320"", ""2610"", ""2930"", ""3286"", ""3758"", ""4198"", ""4617"", ""5144"", ""5481"", ""5689"", ""6029"", ""6464"", ""6704"", ""7030"", ""7337"", ""8053"", ""8362"", ""8761"", ""9135"", ""9444"", ""9762"", ""10058"", ""10353"", ""10630"", ""10930"", ""11241"", ""11529"", ""11831"", ""12128"", ""12424"", ""12729"", ""13022"", ""13304"", ""13592"", ""14240"", ""14522"", ""14807"", ""15130"", ""15391"", ""15676"", ""15946"", ""16235"", ""16522"", ""16810"", ""17112"", ""17356"", ""17640"", ""17897"", ""18146"", ""18377"", ""18639"", ""18863"", 
""19080"", ""19511"", ""19748"", ""19941"", ""20169"", ""20382"", ""20616"", ""20819"", ""21032"", ""21225"", ""21422"", ""21616"", ""21824"", ""22008"", ""22220"", ""22422"", ""22641"", ""22832"", ""23046"", ""23242"", ""23444"", ""23647"", ""23847"", ""24077"", ""24357"", ""24623"", ""24893"", ""25206"", ""25552"", ""25912"", ""26276"", ""26696"", ""27060"", ""27333"", ""27630"", ""27944"", ""28244"", ""28504"", ""28736"", ""28945"", ""29169"", ""29371"", ""29599"", ""29814"")"
"45","R_2UbDaFr8X42TjQi","standard","1","45","LP","0.264713485566566","410.874","411.145","411.261","0.387","0.116","3","3","165"
"46","R_2UbDaFr8X42TjQi","standard","1","46","LP","3.49090909090909","412.264","415.763","415.869","3.605","0.106","3","3","c(""229"", ""455"", ""704"", ""962"", ""1228"", ""1442"", ""1709"", ""1923"", ""2146"", ""2365"", ""2597"", ""2803"", ""3087"", ""3373"")"
"47","R_2UbDaFr8X42TjQi","standard","1","47","LP","5.5010771219302","416.872","422.393","422.565","5.693","0.172","3","3","c(""139"", ""293"", ""677"", ""1394"", ""2315"", ""2661"", ""3284"", ""3910"", ""4112"", ""4389"", ""4645"", ""5028"", ""5455"")"
"48","R_2UbDaFr8X42TjQi","standard","1","48","LP","1.25738905644119","423.569","424.833","425.049","1.48","0.216","3","3","c(""148"", ""647"", ""917"", ""1180"")"
"49","R_2UbDaFr8X42TjQi","standard","1","49","LP","0.661783713916415","426.056","426.722","427.142","1.086","0.42","3","3","c(""22"", ""259"")"
"50","R_2UbDaFr8X42TjQi","standard","1","50","LP","30","428.148","458.18","458.25","30.102","0.07","3","3","c(""512"", ""816"", ""1089"", ""1568"", ""1801"", ""2046"", ""2297"", ""2569"", ""2814"", ""3088"", ""3555"", ""3800"", ""4093"", ""4583"", ""5198"", ""5799"", ""6174"", ""6392"", ""6901"", ""7450"", ""7727"", ""7939"", ""8149"", ""8537"", ""9103"", ""9801"", ""10125"", ""10599"", ""11217"", ""11489"", ""11751"", ""12019"", ""12248"", ""12535"", ""12827"", ""13102"", ""13357"", ""13635"", ""13952"", ""14177"", ""14501"", ""14736"", ""15008"", ""15280"", ""15561"", ""15817"", ""16078"", ""16366"", ""16638"", ""16894"", ""17155"", ""17441"", ""17764"", ""17990"", ""18246"", ""18522"", ""18767"", ""19050"", ""19337"", 
""19615"", ""19887"", ""20155"", ""20403"", ""20670"", ""20918"", ""21190"", ""21450"", ""21678"", ""21950"", ""22230"", ""22502"", ""22719"", ""22967"", ""23317"", ""24398"", ""24616"", ""24889"", ""25135"", ""25398"", ""25672"", ""25951"", ""26405"", ""26694"", ""26943"", ""27215"", ""27453"", ""27749"", ""28006"", ""28279"", ""28516"", ""28775"", ""29022"", ""29287"", ""29574"", ""29818"")"
"51","R_2UbDaFr8X42TjQi","standard","1","51","LP","1.25738905644119","459.257","460.518","460.995","1.738","0.477","3","3","c(""83"", ""258"", ""483"", ""1258"")"
"52","R_2UbDaFr8X42TjQi","standard","1","52","LP","5.5010771219302","462.013","467.534","467.611","5.598","0.077","3","3","c(""169"", ""469"", ""723"", ""969"", ""1228"", ""1478"", ""1708"", ""1968"", ""2152"", ""2409"", ""2620"", ""2845"", ""3099"", ""3322"", ""3536"", ""3834"", ""4084"", ""4332"", ""4588"", ""4856"", ""5107"", ""5354"")"
"53","R_2UbDaFr8X42TjQi","standard","1","53","LP","1.25738905644119","468.618","469.901","470.066","1.448","0.165","3","3","c(""447"", ""922"", ""1163"")"
"54","R_2UbDaFr8X42TjQi","standard","1","54","LP","1.25738905644119","471.082","472.347","472.426","1.344","0.079","3","3","c(""245"", ""516"", ""774"", ""1063"")"
"55","R_2UbDaFr8X42TjQi","standard","1","55","LP","0.264713485566566","473.434","473.706","473.707","0.273","0.001","3","3","9"
"56","R_2UbDaFr8X42TjQi","standard","1","56","LP","0.264713485566566","474.711","474.982","475.032","0.321","0.05","3","3","71"
"57","R_2UbDaFr8X42TjQi","standard","1","57","LP","13.0392072382594","476.033","489.097","489.24","13.207","0.143","3","3","c(""31"", ""264"", ""567"", ""814"", ""1141"", ""1325"", ""1600"", ""1885"", ""2082"", ""2318"", ""2564"", ""2863"", ""3165"", ""3503"", ""3566"", ""3762"", ""3919"", ""4095"", ""4264"", ""4432"", ""4624"", ""4791"", ""4996"", ""5317"", ""5516"", ""5679"", ""5904"", ""6015"", ""6148"", ""6185"", ""6333"", ""7509"", ""8053"", ""8348"", ""9112"", ""9418"", ""9765"", ""11321"", ""11598"", ""12048"", ""12433"", ""12831"")"
"58","R_2UbDaFr8X42TjQi","standard","1","58","LP","19.8235243429556","490.241","510.096","510.226","19.985","0.13","3","3","c(""181"", ""525"", ""896"", ""1308"", ""1693"", ""2078"", ""2473"", ""2855"", ""3224"", ""3624"", ""3985"", ""4383"", ""6105"", ""6113"", ""6120"", ""6121"", ""6181"", ""6390"", ""6783"", ""6956"", ""7345"", ""7540"", ""7840"", ""8024"", ""8393"", ""8563"", ""8917"", ""9089"", ""9456"", ""10125"", ""10671"", ""11245"", ""11826"", ""12409"", ""13007"", ""13608"", ""14157"", ""14778"", ""15339"", ""15904"", ""16517"", ""17048"", ""17629"", ""18222"", ""18784"", ""19385"")"
"59","R_2UbDaFr8X42TjQi","standard","1","59","LP","8.51632916846187","511.239","519.768","519.77","8.531","0.002","3","3","c(""158"", ""726"", ""1294"", ""1793"", ""2340"", ""2808"", ""3254"", ""3694"", ""4121"", ""4536"", ""4925"", ""5324"", ""5725"", ""6143"", ""6487"", ""6903"", ""7297"", ""7642"", ""8120"")"
"60","R_2UbDaFr8X42TjQi","standard","1","60","LP","0.661783713916415","520.781","519.779","520.217","8.978","0.438","3","6","c(""236"", ""603"")"
"61","R_2UbDaFr8X42TjQi","standard","1","61","LP","19.8235243429556","522.786","521.456","521.784","1.003","0.328","3","3","c(""223"", ""610"", ""998"", ""1419"", ""1877"", ""2293"", ""2725"", ""3128"", ""3546"", ""3947"", ""4462"", ""4882"", ""5260"", ""5694"", ""6092"", ""6478"", ""7249"", ""8009"", ""8410"", ""8792"", ""9195"", ""9579"", ""9910"", ""10339"", ""10756"", ""11244"", ""11441"", ""11808"", ""12019"", ""12393"", ""12577"", ""12939"", ""13138"", ""13505"", ""13891"", ""14652"", ""16177"", ""17643"", ""19130"")"
"62","R_2UbDaFr8X42TjQi","standard","1","62","LP","3.49090909090909","544.395","542.624","543.389","20.603","0.765","3","3","c(""99"", ""355"", ""817"", ""1185"", ""1582"", ""1948"", ""2354"", ""2722"", ""3128"")"
"63","R_2UbDaFr8X42TjQi","standard","1","63","LP","0.661783713916415","548.914","547.901","547.907","3.512","0.006","3","3","c(""146"", ""520"")"
"64","R_2UbDaFr8X42TjQi","standard","1","64","LP","0.661783713916415","550.808","549.589","549.794","0.88","0.205","3","3","c(""109"", ""472"")"
"65","R_2UbDaFr8X42TjQi","standard","1","65","LP","19.8235243429556","552.649","551.479","551.645","0.837","0.166","3","3","c(""138"", ""490"", ""863"", ""1250"", ""1646"", ""2092"", ""2321"", ""2699"", ""2914"", ""3214"", ""4113"", ""4804"", ""5445"", ""6141"", ""6747"", ""7403"", ""8009"", ""8682"", ""9314"", ""9930"", ""10499"", ""11229"", ""11813"", ""12435"", ""13029"", ""13680"", ""14274"", ""14969"", ""15560"", ""16214"", ""16745"", ""17411"", ""17972"", ""18633"", ""19168"", ""19786"")"
"66","R_2UbDaFr8X42TjQi","standard","1","66","LP","5.5010771219302","574.01","572.49","572.993","20.344","0.503","3","3","c(""219"", ""869"", ""1506"", ""2183"", ""2735"", ""2935"", ""3239"", ""3569"", ""4121"", ""4280"", ""4615"", ""4921"", ""5449"")"
"67","R_2UbDaFr8X42TjQi","standard","1","67","LP","19.8235243429556","580.711","579.521","579.695","5.685","0.174","3","3","c(""145"", ""345"", ""652"", ""994"", ""1547"", ""1732"", ""2051"", ""2436"", ""3033"", ""3228"", ""3566"", ""3923"", ""4483"", ""5013"", ""5354"", ""5900"", ""6412"", ""6772"", ""7282"", ""7837"", ""8183"", ""8719"", ""9237"", ""9583"", ""10081"", ""10617"", ""10898"", ""11410"", ""11882"", ""12166"", ""12715"", ""13233"", ""13535"", ""13984"", ""14539"", ""14826"", ""15250"", ""15500"", ""15931"", ""16226"", ""16682"", ""17139"", ""17382"", ""17897"", ""18412"", ""18706"", ""19182"", ""19644"")"
"68","R_2UbDaFr8X42TjQi","standard","1","68","LP","0.661783713916415","601.635","600.554","600.63","19.919","0.076","3","3","230"
"69","R_2UbDaFr8X42TjQi","standard","1","69","LP","0.264713485566566","603.361","602.309","602.345","0.71","0.036","3","3","422"
"70","R_2UbDaFr8X42TjQi","standard","1","70","LP","3.49090909090909","604.923","603.787","603.92","0.559","0.133","3","3","c(""269"", ""554"", ""1053"", ""1539"", ""1837"", ""2323"", ""2734"", ""3062"", ""3422"")"
"71","R_2UbDaFr8X42TjQi","standard","1","71","LP","0.264713485566566","609.71","608.417","608.695","3.772","0.278","3","3","217"
"72","R_2UbDaFr8X42TjQi","standard","1","72","LP","13.0392072382594","611.267","609.978","610.26","0.55","0.282","3","3","c(""195"", ""490"", ""780"", ""1070"", ""1310"", ""1551"", ""1814"", ""2052"", ""2252"", ""2493"", ""2765"", ""3005"", ""3228"", ""3476"", ""3683"", ""3894"", ""4127"", ""4397"", ""4573"", ""4862"", ""5125"", ""5428"", ""5709"", ""6246"", ""6731"", ""7026"", ""7478"", ""7990"", ""8278"", ""8727"", ""9199"", ""9484"", ""9925"", ""10494"", ""10781"", ""11277"", ""11771"", ""12025"", ""12410"", ""13029"")"
"73","R_2UbDaFr8X42TjQi","standard","1","73","LP","3.49090909090909","625.591","624.324","624.577","13.31","0.253","3","3","c(""272"", ""683"", ""1169"", ""1447"", ""1873"", ""2352"", ""2603"", ""3047"", ""3480"")"
"74","R_2UbDaFr8X42TjQi","standard","1","74","LP","13.0392072382594","630.354","629.095","629.343","3.752","0.248","3","3","c(""206"", ""636"", ""1125"", ""1413"", ""1789"", ""2283"", ""2492"", ""2744"", ""3137"", ""3697"", ""4005"", ""4355"", ""4811"", ""5099"", ""5499"", ""5996"", ""6282"", ""6700"", ""7221"", ""7501"", ""7892"", ""8363"", ""8622"", ""9058"", ""9538"", ""9805"", ""10282"", ""10701"", ""10995"", ""11421"", ""11811"", ""12266"")"
"75","R_2UbDaFr8X42TjQi","standard","1","75","LP","13.0392072382594","645.429","643.412","NA","14.083","NA","0","0","c(""2747"", ""3408"", ""3713"", ""4179"", ""4682"", ""4971"", ""5424"", ""5912"", ""6167"", ""6677"", ""7169"", ""7432"", ""7870"", ""8352"", ""8631"", ""9119"", ""9609"", ""9925"", ""10392"", ""10888"", ""11176"", ""11624"", ""12080"", ""12295"", ""12751"")"
"76","R_2UbDaFr8X42TjQi","standard","1","76","LP","1.25738905644119","659.578","643.412","NA","14.083","NA","0","0","c(""171"", ""681"")"
"77","R_2UbDaFr8X42TjQi","standard","1","77","LP","1.25738905644119","661.891","643.412","NA","14.085","NA","0","0","c(""268"", ""602"", ""1071"")"
"78","R_2UbDaFr8X42TjQi","standard","1","78","LP","2.15079707022835","664.432","658.482","658.559","13.13","0.077","3","3","c(""144"", ""410"", ""857"", ""1318"", ""1596"", ""2033"")"
"79","R_2UbDaFr8X42TjQi","standard","1","79","LP","1.25738905644119","667.941","660.843","660.877","1.299","0.034","3","3","c(""102"", ""350"", ""758"", ""1175"")"
"80","R_2UbDaFr8X42TjQi","standard","1","80","LP","13.0392072382594","670.378","663.163","663.402","1.511","0.239","3","3","c(""12"", ""381"", ""743"", ""999"", ""1339"", ""1675"", ""1898"", ""2208"", ""2578"", ""2795"", ""3195"", ""3545"", ""3725"", ""4096"", ""4479"", ""4682"", ""5070"", ""5481"", ""5711"", ""6125"", ""6482"", ""6765"", ""7160"", ""7580"", ""7798"", ""8198"", ""8695"", ""8896"", ""9298"", ""9715"", ""9951"", ""10312"", ""10840"", ""11299"", ""12012"", ""12366"", ""12802"")"
"81","R_2UbDaFr8X42TjQi","standard","1","81","LP","13.0392072382594","684.989","666.599","666.929","2.497","0.33","3","3","c(""169"", ""430"", ""702"", ""1021"", ""1269"", ""1569"", ""2017"", ""2434"", ""2651"", ""3086"", ""3489"", ""3740"", ""4177"", ""4599"", ""4879"", ""5286"", ""5744"", ""5986"", ""6269"", ""6531"", ""6755"", ""7441"", ""7725"", ""8017"", ""8341"", ""8613"", ""8869"", ""9156"", ""9463"", ""9685"", ""9965"", ""10202"", ""10469"", ""10692"", ""10943"", ""11186"", ""11463"", ""11721"", ""11924"", ""12180"", ""12404"", ""12669"", ""12871"")"
"82","R_2UbDaFr8X42TjQi","standard","1","82","LP","8.51632916846187","699.283","669.211","669.371","1.43","0.16","3","3","c(""151"", ""374"", ""631"", ""2108"", ""2497"", ""2793"", ""3048"", ""3301"", ""3593"", ""3854"", ""4067"", ""4287"", ""4527"", ""6677"", ""6940"", ""7199"", ""7463"", ""7726"", ""7991"", ""8231"", ""8491"")"
"83","R_2UbDaFr8X42TjQi","standard","1","83","LP","3.49090909090909","709.124","683.433","683.98","13.602","0.547","3","3","c(""234"", ""571"", ""831"", ""1103"", ""1718"", ""2019"", ""2307"", ""2570"", ""2834"", ""3140"")"
"84","R_2UbDaFr8X42TjQi","standard","1","84","LP","2.15079707022835","713.691","698.066","698.274","13.285","0.208","3","3","c(""57"", ""358"", ""635"", ""1862"")"
"85","R_2UbDaFr8X42TjQi","standard","1","85","LP","8.51632916846187","717.777","707.814","708.118","8.835","0.304","3","3","c(""153"", ""481"", ""1163"", ""1398"", ""1663"", ""1929"", ""2184"", ""2427"", ""2688"", ""2936"", ""3196"", ""3462"", ""3734"", ""4000"", ""4254"", ""4528"", ""4784"", ""5055"", ""5328"", ""5774"", ""6211"", ""6456"", ""6895"", ""7327"", ""7567"", ""7981"", ""8429"")"
"86","R_2UbDaFr8X42TjQi","standard","1","86","LP","0.264713485566566","727.552","712.629","712.685","3.561","0.056","3","3",""
"87","R_2UbDaFr8X42TjQi","standard","1","87","LP","1.25738905644119","728.939","715.853","716.764","3.073","0.911","3","3","c(""52"", ""493"", ""712"", ""1112"")"
"88","R_2UbDaFr8X42TjQi","standard","1","88","LP","30","731.504","726.316","726.457","8.68","0.141","3","3","c(""156"", ""586"", ""1042"", ""1255"", ""1700"", ""2127"", ""2326"", ""2745"", ""3176"", ""3401"", ""3853"", ""4052"", ""4311"", ""4532"", ""4952"", ""5165"", ""5414"", ""5654"", ""6130"", ""6500"", ""6766"", ""7203"", ""7625"", ""7880"", ""8297"", ""8710"", ""8985"", ""9287"", ""9528"", ""9786"", ""10064"", ""10284"", ""10528"", ""11270"", ""11568"", ""11869"", ""12169"", ""12440"", ""12669"", ""13253"", ""13499"", ""14055"", ""14325"", ""14886"", ""15550"", ""15845"", ""16119"", ""16385"", ""16653"", ""16889"", ""17205"", ""17491"", ""17970"", ""18407"", ""18810"", ""19047"", ""19475"", ""19896"", ""20169"", 
""20572"", ""20984"", ""21204"", ""21694"", ""22149"", ""22423"", ""22870"", ""23299"", ""23568"", ""24049"", ""24544"", ""24823"", ""25299"", ""25749"", ""26023"", ""26486"", ""26927"", ""27236"", ""27738"", ""28181"", ""28462"", ""28918"", ""29382"", ""29669"")"
"89","R_2UbDaFr8X42TjQi","standard","1","89","LP","19.8235243429556","762.637","727.821","727.936","0.384","0.115","3","6","c(""179"", ""584"", ""850"", ""1304"", ""1721"", ""1985"", ""2434"", ""2845"", ""3119"", ""3513"", ""3967"", ""4225"", ""4652"", ""5119"", ""5373"", ""5807"", ""6242"", ""6471"", ""6921"", ""7375"", ""7635"", ""8068"", ""8465"", ""8746"", ""9151"", ""9566"", ""9809"", ""10192"", ""10614"", ""11199"", ""11523"", ""11720"", ""12010"", ""12251"", ""12811"", ""13087"", ""13407"", ""13668"", ""13937"", ""14213"", ""14487"", ""14799"", ""15134"", ""15408"", ""17435"", ""17666"", ""19000"", ""19199"")"
"90","R_2UbDaFr8X42TjQi","standard","1","90","LP","2.15079707022835","784.364","730.208","730.473","1.534","0.265","3","3","c(""1424"", ""1626"", ""1863"", ""2108"")"
"91","R_2UbDaFr8X42TjQi","standard","1","91","LP","8.51632916846187","788.002","761.523","761.629","30.125","0.106","3","3","c(""789"", ""1242"", ""1534"", ""1909"", ""2176"", ""2486"", ""2781"", ""3033"", ""3320"", ""3585"", ""3885"", ""4201"", ""4465"", ""4730"", ""4968"", ""5225"", ""5522"", ""5799"", ""6070"", ""6362"", ""6937"", ""7486"", ""7773"", ""8169"", ""8423"")"
"92","R_2UbDaFr8X42TjQi","standard","1","92","LP","30","797.885","782.49","783.357","20.72","0.867","3","3","c(""242"", ""601"", ""996"", ""1277"", ""1770"", ""2020"", ""2477"", ""2858"", ""3142"", ""3471"", ""3752"", ""4004"", ""4286"", ""4574"", ""4814"", ""5071"", ""5344"", ""5551"", ""5846"", ""6070"", ""6285"", ""6501"", ""6838"", ""7105"", ""7566"", ""7837"", ""8127"", ""8385"", ""8654"", ""8958"", ""9205"", ""9454"", ""9765"", ""10019"", ""10292"", ""10584"", ""10863"", ""11117"", ""11405"", ""11669"", ""12136"", ""12660"", ""12916"", ""13471"", ""13901"", ""14176"", ""14663"", ""15086"", ""15365"", ""15845"", ""16294"", ""16568"", ""17037"", ""17501"", ""17790"", ""18255"", ""18685"", ""18976"", ""19444"", ""19917"", 
""20187"", ""20666"", ""21083"", ""21365"", ""21852"", ""22316"", ""22602"", ""23065"", ""23514"", ""23843"", ""24317"", ""24785"", ""25092"", ""25569"", ""26026"", ""26317"", ""26636"", ""26918"", ""27536"", ""28115"", ""28502"", ""28796"", ""29149"", ""29580"", ""29757"")"
"93","R_2UbDaFr8X42TjQi","standard","1","93","LP","3.49090909090909","828.9","786.522","786.996","2.632","0.474","3","3","c(""246"", ""502"", ""781"", ""1068"", ""1338"", ""1603"", ""1849"", ""2109"", ""2388"", ""2661"", ""2941"")"
"94","R_2UbDaFr8X42TjQi","standard","1","94","LP","2.15079707022835","833.421","796.536","796.877","8.875","0.341","3","3","c(""20"", ""282"", ""619"", ""948"", ""1245"", ""1508"", ""1828"")"
"95","R_2UbDaFr8X42TjQi","standard","1","95","LP","2.15079707022835","836.852","827.89","827.892","30.007","0.002","3","3","c(""317"", ""613"", ""932"", ""1276"", ""1585"", ""1878"", ""2133"")"
"96","R_2UbDaFr8X42TjQi","standard","1","96","LP","3.49090909090909","840.227","827.905","828.17","30.285","0.265","3","6","c(""141"", ""343"", ""637"", ""903"", ""1178"", ""1476"", ""1741"", ""2028"", ""2315"", ""2574"", ""2859"", ""3174"", ""3490"")"
"97","R_2UbDaFr8X42TjQi","standard","1","97","LP","0.661783713916415","844.984","832.413","832.415","3.515","0.002","3","3","c(""69"", ""376"", ""668"")"
"98","R_2UbDaFr8X42TjQi","standard","1","98","LP","5.5010771219302","846.964","832.419","832.682","3.782","0.263","3","6","c(""150"", ""437"", ""735"", ""1002"", ""1291"", ""1826"", ""2258"", ""2691"", ""2940"", ""3436"", ""3921"", ""4176"", ""4649"", ""5130"", ""5402"")"
"99","R_2UbDaFr8X42TjQi","standard","1","99","LP","3.49090909090909","853.829","835.59","835.849","2.428","0.259","3","3","c(""226"", ""655"", ""932"", ""1391"", ""1867"", ""2141"", ""2437"", ""2721"", ""3011"", ""3323"")"
"100","R_2UbDaFr8X42TjQi","standard","1","100","LP","30","858.429","839.007","839.225","2.373","0.218","3","3","c(""156"", ""495"", ""753"", ""1043"", ""1341"", ""1610"", ""1874"", ""2177"", ""2473"", ""2747"", ""3036"", ""3298"", ""3573"", ""3856"", ""4152"", ""4457"", ""4714"", ""5003"", ""5283"", ""5539"", ""5843"", ""6108"", ""6369"", ""6641"", ""6922"", ""7176"", ""7473"", ""7746"", ""8019"", ""8267"", ""8570"", ""8932"", ""9194"", ""9473"", ""9778"", ""10041"", ""10329"", ""10618"", ""10890"", ""11228"", ""11540"", ""12115"", ""12491"", ""12747"", ""12993"", ""13232"", ""13473"", ""13753"", ""13988"", ""14241"", ""14472"", ""14730"", ""14976"", ""15232"", ""15498"", ""15744"", ""15983"", ""16224"", ""16505"", ""16757"", 
""17043"", ""17299"", ""17541"", ""17840"", ""18173"", ""18418"", ""19071"", ""19586"", ""20207"", ""20529"", ""20960"", ""21456"", ""21772"", ""22226"", ""22622"", ""22855"", ""23255"", ""23656"", ""23871"", ""24293"", ""24648"", ""24854"", ""25231"", ""25624"", ""25823"", ""26216"", ""26599"", ""26807"", ""27191"", ""27556"", ""27792"", ""28065"", ""28322"", ""28554"", ""28808"", ""29082"", ""29313"", ""29591"", ""29841"")"
"101","R_2UbDaFr8X42TjQi","standard","1","101","LP","0.264713485566566","889.547","843.735","843.969","3.742","0.234","3","3","c(""18"", ""260"")"
"102","R_2UbDaFr8X42TjQi","standard","2","1","LP","0.264713485566566","0.001","0.271","0.751","0.75","0.48","3","6",NA
"103","R_2UbDaFr8X42TjQi","standard","2","2","LP","1.25738905644119","1.755","NaN","2.607","0.852","NaN","0","6",NA
"104","R_2UbDaFr8X42TjQi","standard","2","3","LP","8.51632916846187","3.618","NaN","4.1","0.482","NaN","0","6",NA
"105","R_2UbDaFr8X42TjQi","standard","2","4","LP","13.0392072382594","5.115","NaN","5.287","0.172","NaN","0","6",NA
"106","R_2UbDaFr8X42TjQi","standard","2","5","LP","5.5010771219302","6.302","NaN","6.381","0.079","NaN","0","6",NA
"107","R_2UbDaFr8X42TjQi","standard","2","6","LP","3.49090909090909","7.387","NaN","7.463","0.076","NaN","0","6",NA
"108","R_2UbDaFr8X42TjQi","standard","2","7","LP","3.49090909090909","8.466","NaN","8.542","0.076","NaN","0","6",NA
"109","R_2UbDaFr8X42TjQi","standard","2","8","LP","8.51632916846187","9.547","NaN","9.581","0.034","NaN","0","6",NA
"110","R_2UbDaFr8X42TjQi","standard","2","9","LP","3.49090909090909","10.6","NaN","10.659","0.059","NaN","0","6",NA
"111","R_2UbDaFr8X42TjQi","standard","2","10","LP","2.15079707022835","11.666","NaN","11.797","0.131","NaN","0","6",NA
"112","R_2UbDaFr8X42TjQi","standard","2","11","LP","1.25738905644119","12.802","NaN","13.074","0.272","NaN","0","6",NA
"113","R_2UbDaFr8X42TjQi","standard","2","12","LP","13.0392072382594","14.075","NaN","14.6","0.525","NaN","0","6",NA
"114","R_2UbDaFr8X42TjQi","standard","2","13","LP","13.0392072382594","15.603","NaN","15.966","0.363","NaN","0","6",NA
"115","R_2UbDaFr8X42TjQi","standard","2","14","LP","3.49090909090909","16.984","NaN","17.035","0.051","NaN","0","6",NA
"116","R_2UbDaFr8X42TjQi","standard","2","15","LP","30","18.044","NaN","18.141","0.097","NaN","0","6",NA
"117","R_2UbDaFr8X42TjQi","standard","2","16","LP","19.8235243429556","19.146","NaN","19.503","0.357","NaN","0","6",NA
"118","R_2UbDaFr8X42TjQi","standard","2","17","LP","2.15079707022835","20.534","NaN","21.972","1.438","NaN","0","6",NA
"119","R_2UbDaFr8X42TjQi","standard","2","18","LP","3.49090909090909","22.986","NaN","24.195","1.209","NaN","0","6",NA
"120","R_2UbDaFr8X42TjQi","standard","2","19","LP","0.264713485566566","25.202","25.475",NA,"1.279",NA,"0","6",NA
"121","R_2UbDaFr8X42TjQi","standard","2","20","LP","19.8235243429556","27.486","NaN","28.546","1.06","NaN","0","6",NA
"122","R_2UbDaFr8X42TjQi","standard","2","21","LP","0.264713485566566","29.554","NaN","29.715","0.161","NaN","0","6",NA
"123","R_2UbDaFr8X42TjQi","standard","2","22","LP","8.51632916846187","30.719","NaN","31.23","0.511","NaN","0","6",NA
"124","R_2UbDaFr8X42TjQi","standard","2","23","LP","19.8235243429556","32.234","NaN","32.259","0.025","NaN","0","6",NA
"125","R_2UbDaFr8X42TjQi","standard","2","24","LP","2.15079707022835","33.268","NaN","33.372","0.104","NaN","0","6",NA
"126","R_2UbDaFr8X42TjQi","standard","2","25","LP","8.51632916846187","34.385","NaN","34.499","0.114","NaN","0","6",NA
"127","R_2UbDaFr8X42TjQi","standard","2","26","LP","0.264713485566566","35.517","NaN","35.686","0.169","NaN","0","6",NA
"128","R_2UbDaFr8X42TjQi","standard","2","27","LP","0.661783713916415","36.707","NaN","36.827","0.12","NaN","0","6",NA
"129","R_2UbDaFr8X42TjQi","standard","2","28","LP","30","37.835","NaN","37.963","0.128","NaN","0","6",NA
"130","R_2UbDaFr8X42TjQi","standard","2","29","LP","30","38.97","NaN","38.98","0.01","NaN","0","6",NA
"131","R_2UbDaFr8X42TjQi","standard","2","30","LP","0.661783713916415","40.001","NaN","40.475","0.474","NaN","0","6",NA
"132","R_2UbDaFr8X42TjQi","standard","2","31","LP","8.51632916846187","41.491","NaN","42.124","0.633","NaN","0","6",NA
"133","R_2UbDaFr8X42TjQi","standard","2","32","LP","0.661783713916415","43.13","NaN","43.466","0.336","NaN","0","6",NA
"134","R_2UbDaFr8X42TjQi","standard","2","33","LP","3.49090909090909","44.481","NaN","44.764","0.283","NaN","0","6",NA
"135","R_2UbDaFr8X42TjQi","standard","2","34","LP","1.25738905644119","45.771","NaN","45.951","0.18","NaN","0","6",NA
"136","R_2UbDaFr8X42TjQi","standard","2","35","LP","3.49090909090909","46.983","NaN","47.028","0.045","NaN","0","6",NA
"137","R_2UbDaFr8X42TjQi","standard","2","36","LP","0.661783713916415","48.029","NaN","48.473","0.444","NaN","0","6",NA
"138","R_2UbDaFr8X42TjQi","standard","2","37","LP","5.5010771219302","49.483","NaN","49.545","0.062","NaN","0","6",NA
"139","R_2UbDaFr8X42TjQi","standard","2","38","LP","2.15079707022835","50.546","NaN","50.779","0.233","NaN","0","6",NA
"140","R_2UbDaFr8X42TjQi","standard","2","39","LP","13.0392072382594","51.786","NaN","52.033","0.247","NaN","0","6",NA
"141","R_2UbDaFr8X42TjQi","standard","2","40","LP","2.15079707022835","53.042","NaN","53.086","0.044","NaN","0","6",NA
"142","R_2UbDaFr8X42TjQi","standard","2","41","LP","8.51632916846187","54.211","NaN","54.253","0.042","NaN","0","6",NA
"143","R_2UbDaFr8X42TjQi","standard","2","42","LP","0.264713485566566","55.258","NaN","55.456","0.198","NaN","0","6",NA
"144","R_2UbDaFr8X42TjQi","standard","2","43","LP","19.8235243429556","56.458","NaN","56.586","0.128","NaN","0","6",NA
"145","R_2UbDaFr8X42TjQi","standard","2","44","LP","3.49090909090909","57.599","NaN","57.616","0.017","NaN","0","6",NA
"146","R_2UbDaFr8X42TjQi","standard","2","45","LP","2.15079707022835","58.624","NaN","59.049","0.425","NaN","0","6",NA
"147","R_2UbDaFr8X42TjQi","standard","2","46","LP","13.0392072382594","60.049","NaN","60.625","0.576","NaN","0","6",NA
"148","R_2UbDaFr8X42TjQi","standard","2","47","LP","2.15079707022835","61.625","NaN","61.681","0.056","NaN","0","6",NA
"149","R_2UbDaFr8X42TjQi","standard","2","48","LP","1.25738905644119","62.699","NaN","62.713","0.014","NaN","0","6",NA
"150","R_2UbDaFr8X42TjQi","standard","2","49","LP","13.0392072382594","63.715","NaN","63.84","0.125","NaN","0","6",NA
"151","R_2UbDaFr8X42TjQi","standard","2","50","LP","1.25738905644119","64.841","NaN","65.025","0.184","NaN","0","6",NA
"152","R_2UbDaFr8X42TjQi","standard","2","51","LP","19.8235243429556","66.026","NaN","66.177","0.151","NaN","0","6",NA
"153","R_2UbDaFr8X42TjQi","standard","2","52","LP","8.51632916846187","67.177","NaN","67.998","0.821","NaN","0","6",NA
"154","R_2UbDaFr8X42TjQi","standard","2","53","LP","30","69.013","NaN","69.056","0.043","NaN","0","6",NA
"155","R_2UbDaFr8X42TjQi","standard","2","54","LP","2.15079707022835","70.066","NaN","70.782","0.716","NaN","0","6",NA
"156","R_2UbDaFr8X42TjQi","standard","2","55","LP","0.661783713916415","71.799","NaN","71.884","0.085","NaN","0","6",NA
"157","R_2UbDaFr8X42TjQi","standard","2","56","LP","13.0392072382594","72.891","NaN","73.064","0.173","NaN","0","6",NA
"158","R_2UbDaFr8X42TjQi","standard","2","57","LP","2.15079707022835","74.066","NaN","74.081","0.015","NaN","0","6",NA
"159","R_2UbDaFr8X42TjQi","standard","2","58","LP","3.49090909090909","75.096","NaN","76.763","1.667","NaN","0","6",NA
"160","R_2UbDaFr8X42TjQi","standard","2","59","LP","8.51632916846187","77.781","NaN","77.933","0.152","NaN","0","6",NA
"161","R_2UbDaFr8X42TjQi","standard","2","60","LP","13.0392072382594","78.938","NaN","78.951","0.013","NaN","0","6",NA
"162","R_2UbDaFr8X42TjQi","standard","2","61","LP","3.49090909090909","79.953","NaN","80.039","0.086","NaN","0","6",NA
"163","R_2UbDaFr8X42TjQi","standard","2","62","LP","0.661783713916415","81.042","NaN","81.117","0.075","NaN","0","6",NA
"164","R_2UbDaFr8X42TjQi","standard","2","63","LP","19.8235243429556","82.121","NaN","82.135","0.014","NaN","0","6",NA
"165","R_2UbDaFr8X42TjQi","standard","2","64","LP","2.15079707022835","83.138","NaN","83.336","0.198","NaN","0","6",NA
"166","R_2UbDaFr8X42TjQi","standard","2","65","LP","13.0392072382594","84.339","NaN","84.646","0.307","NaN","0","6",NA
"167","R_2UbDaFr8X42TjQi","standard","2","66","LP","3.49090909090909","85.649","NaN","85.694","0.045","NaN","0","6",NA
"168","R_2UbDaFr8X42TjQi","standard","2","67","LP","13.0392072382594","86.698","NaN","86.934","0.236","NaN","0","6",NA
"169","R_2UbDaFr8X42TjQi","standard","2","68","LP","8.51632916846187","87.938","NaN","88.734","0.796","NaN","0","6",NA
"170","R_2UbDaFr8X42TjQi","standard","2","69","LP","0.661783713916415","89.738","NaN","89.752","0.014","NaN","0","6",NA
"171","R_2UbDaFr8X42TjQi","standard","2","70","LP","19.8235243429556","90.754","NaN","90.8","0.046","NaN","0","6",NA
"172","R_2UbDaFr8X42TjQi","standard","2","71","LP","5.5010771219302","91.802","NaN","92.545","0.743","NaN","0","6",NA
"173","R_2UbDaFr8X42TjQi","standard","2","72","LP","0.661783713916415","93.546","NaN","94.02","0.474","NaN","0","6",NA
"174","R_2UbDaFr8X42TjQi","standard","2","73","LP","5.5010771219302","95.026","NaN","95.055","0.029","NaN","0","6",NA
"175","R_2UbDaFr8X42TjQi","standard","2","74","LP","19.8235243429556","96.057","NaN","96.142","0.085","NaN","0","6",NA
"176","R_2UbDaFr8X42TjQi","standard","2","75","LP","8.51632916846187","97.145","NaN","97.367","0.222","NaN","0","6",NA
"177","R_2UbDaFr8X42TjQi","standard","2","76","LP","5.5010771219302","98.37","NaN","98.436","0.066","NaN","0","6",NA
"178","R_2UbDaFr8X42TjQi","standard","2","77","LP","19.8235243429556","99.442","NaN","99.479","0.037","NaN","0","6",NA
"179","R_2UbDaFr8X42TjQi","standard","2","78","LP","8.51632916846187","100.48","NaN","100.666","0.186","NaN","0","6",NA
"180","R_2UbDaFr8X42TjQi","standard","2","79","LP","1.25738905644119","101.679","NaN","101.687","0.008","NaN","0","6",NA
"181","R_2UbDaFr8X42TjQi","standard","2","80","LP","3.49090909090909","102.688","NaN","102.847","0.159","NaN","0","6",NA
"182","R_2UbDaFr8X42TjQi","standard","2","81","LP","13.0392072382594","103.856","NaN","103.961","0.105","NaN","0","6",NA
"183","R_2UbDaFr8X42TjQi","standard","2","82","LP","19.8235243429556","104.964","NaN","105.077","0.113","NaN","0","6",NA
"184","R_2UbDaFr8X42TjQi","standard","2","83","LP","1.25738905644119","106.145","NaN","106.519","0.374","NaN","0","6",NA
"185","R_2UbDaFr8X42TjQi","standard","2","84","LP","30","107.521","NaN","107.564","0.043","NaN","0","6",NA
"186","R_2UbDaFr8X42TjQi","standard","2","85","LP","0.264713485566566","108.578","NaN","108.592","0.014","NaN","0","6",NA
"187","R_2UbDaFr8X42TjQi","standard","2","86","LP","3.49090909090909","109.594","NaN","109.733","0.139","NaN","0","6",NA
"188","R_2UbDaFr8X42TjQi","standard","2","87","LP","5.5010771219302","110.737","NaN","110.901","0.164","NaN","0","6",NA
"189","R_2UbDaFr8X42TjQi","standard","2","88","LP","0.264713485566566","111.91","NaN","112.019","0.109","NaN","0","6",NA
"190","R_2UbDaFr8X42TjQi","standard","2","89","LP","8.51632916846187","113.025","NaN","113.389","0.364","NaN","0","6",NA
"191","R_2UbDaFr8X42TjQi","standard","2","90","LP","19.8235243429556","114.395","NaN","115.068","0.673","NaN","0","6",NA
"192","R_2UbDaFr8X42TjQi","standard","2","91","LP","5.5010771219302","116.079","NaN","116.567","0.488","NaN","0","6",NA
"193","R_2UbDaFr8X42TjQi","standard","2","92","LP","2.15079707022835","117.579","NaN","118.395","0.816","NaN","0","6",NA
"194","R_2UbDaFr8X42TjQi","standard","2","93","LP","5.5010771219302","119.411","NaN","119.982","0.571","NaN","0","6",NA
"195","R_2UbDaFr8X42TjQi","standard","2","94","LP","1.25738905644119","120.988","NaN","121.216","0.228","NaN","0","6",NA
"196","R_2UbDaFr8X42TjQi","standard","2","95","LP","0.661783713916415","122.224","122.888","122.909","0.685","0.021","3","9",NA
"197","R_2UbDaFr8X42TjQi","standard","2","96","LP","5.5010771219302","123.913","NaN","124.739","0.826","NaN","0","9",NA
"198","R_2UbDaFr8X42TjQi","standard","2","97","LP","2.15079707022835","125.745","NaN","125.826","0.081","NaN","0","9",NA
"199","R_2UbDaFr8X42TjQi","standard","2","98","LP","30","126.83","NaN","129.341","2.511","NaN","0","9",NA
"200","R_2UbDaFr8X42TjQi","standard","2","99","LP","19.8235243429556","130.345","NaN","130.362","0.017","NaN","0","9",NA
"201","R_2UbDaFr8X42TjQi","standard","2","100","LP","3.49090909090909","131.379","NaN","131.562","0.183","NaN","0","9",NA
"202","R_2UbDaFr8X42TjQi","standard","2","101","LP","5.5010771219302","132.578","NaN","134.152","1.574","NaN","0","9",NA
"203","R_2UbDaFr8X42TjQi","standard","2","102","LP","2.15079707022835","135.153","NaN","135.178","0.025","NaN","0","9",NA
"204","R_2UbDaFr8X42TjQi","standard","2","103","LP","30","136.185","NaN","136.354","0.169","NaN","0","9",NA
"205","R_2UbDaFr8X42TjQi","standard","2","104","LP","8.51632916846187","137.36","NaN","138.745","1.385","NaN","0","9",NA
"206","R_2UbDaFr8X42TjQi","standard","2","105","LP","5.5010771219302","139.752","NaN","139.79","0.038","NaN","0","9",NA
"207","R_2UbDaFr8X42TjQi","standard","2","106","LP","5.5010771219302","140.802","NaN","141.933","1.131","NaN","0","9",NA
"208","R_2UbDaFr8X42TjQi","standard","2","107","LP","1.25738905644119","142.935","NaN","143.178","0.243","NaN","0","9",NA
"209","R_2UbDaFr8X42TjQi","standard","2","108","LP","3.49090909090909","144.192","NaN","144.266","0.074","NaN","0","9",NA
"210","R_2UbDaFr8X42TjQi","standard","2","109","LP","5.5010771219302","145.273","NaN","145.288","0.015","NaN","0","9",NA
"211","R_2UbDaFr8X42TjQi","standard","2","110","LP","3.49090909090909","146.295","NaN","146.329","0.034","NaN","0","9",NA
"212","R_2UbDaFr8X42TjQi","standard","2","111","LP","19.8235243429556","147.337","NaN","147.4","0.063","NaN","0","9",NA
"213","R_2UbDaFr8X42TjQi","standard","2","112","LP","13.0392072382594","148.406","NaN","148.61","0.204","NaN","0","9",NA
"214","R_2UbDaFr8X42TjQi","standard","2","113","LP","5.5010771219302","149.616","NaN","149.851","0.235","NaN","0","9",NA
"215","R_2UbDaFr8X42TjQi","standard","2","114","LP","5.5010771219302","150.856","NaN","150.989","0.133","NaN","0","9",NA
"216","R_2UbDaFr8X42TjQi","standard","2","115","LP","8.51632916846187","151.993","NaN","152.235","0.242","NaN","0","9",NA
"217","R_2UbDaFr8X42TjQi","standard","2","116","LP","8.51632916846187","153.241","NaN","153.452","0.211","NaN","0","9",NA
"218","R_2UbDaFr8X42TjQi","standard","2","117","LP","30","154.456","NaN","154.648","0.192","NaN","0","9",NA
"219","R_2UbDaFr8X42TjQi","standard","2","118","LP","5.5010771219302","155.649","NaN","155.682","0.033","NaN","0","9",NA
"220","R_2UbDaFr8X42TjQi","standard","2","119","LP","19.8235243429556","156.692","NaN","156.731","0.039","NaN","0","9",NA
"221","R_2UbDaFr8X42TjQi","standard","2","120","LP","3.49090909090909","157.737","NaN","158.395","0.658","NaN","0","9",NA
"222","R_2UbDaFr8X42TjQi","standard","2","121","LP","0.264713485566566","159.41","NaN","159.617","0.207","NaN","0","9",NA
"223","R_2UbDaFr8X42TjQi","standard","2","122","LP","1.25738905644119","160.62","NaN","160.894","0.274","NaN","0","9",NA
"224","R_2UbDaFr8X42TjQi","standard","2","123","LP","8.51632916846187","161.911","NaN","162.183","0.272","NaN","0","9",NA
"225","R_2UbDaFr8X42TjQi","standard","2","124","LP","1.25738905644119","163.188","NaN","163.226","0.038","NaN","0","9",NA
"226","R_2UbDaFr8X42TjQi","standard","2","125","LP","19.8235243429556","164.228","NaN","164.394","0.166","NaN","0","9",NA
"227","R_2UbDaFr8X42TjQi","standard","2","126","LP","19.8235243429556","165.41","NaN","165.542","0.132","NaN","0","9",NA
"228","R_2UbDaFr8X42TjQi","standard","2","127","LP","19.8235243429556","166.544","NaN","166.736","0.192","NaN","0","9",NA
"229","R_2UbDaFr8X42TjQi","standard","2","128","LP","30","167.736","NaN","167.769","0.033","NaN","0","9",NA
"230","R_2UbDaFr8X42TjQi","standard","2","129","LP","8.51632916846187","168.776","NaN","168.857","0.081","NaN","0","9",NA
"231","R_2UbDaFr8X42TjQi","standard","2","130","LP","0.661783713916415","169.865","NaN","170.04","0.175","NaN","0","9",NA
"232","R_2UbDaFr8X42TjQi","standard","2","131","LP","30","171.049","NaN","171.151","0.102","NaN","0","9",NA
"233","R_2UbDaFr8X42TjQi","standard","2","132","LP","2.15079707022835","172.153","NaN","172.264","0.111","NaN","0","9",NA
"234","R_2UbDaFr8X42TjQi","standard","2","133","LP","13.0392072382594","173.276","NaN","173.421","0.145","NaN","0","9",NA
"235","R_2UbDaFr8X42TjQi","standard","2","134","LP","13.0392072382594","174.424","NaN","174.559","0.135","NaN","0","9",NA
"236","R_2UbDaFr8X42TjQi","standard","2","135","LP","3.49090909090909","175.576","NaN","175.744","0.168","NaN","0","9",NA
"237","R_2UbDaFr8X42TjQi","standard","2","136","LP","0.661783713916415","176.761","NaN","176.996","0.235","NaN","0","9",NA
"238","R_2UbDaFr8X42TjQi","standard","2","137","LP","0.264713485566566","178.004","NaN","178.239","0.235","NaN","0","9",NA
"239","R_2UbDaFr8X42TjQi","standard","2","138","LP","8.51632916846187","179.241","NaN","179.291","0.05","NaN","0","9",NA
"240","R_2UbDaFr8X42TjQi","standard","2","139","LP","8.51632916846187","180.296","NaN","180.344","0.048","NaN","0","9",NA
"241","R_2UbDaFr8X42TjQi","standard","2","140","LP","13.0392072382594","181.345","NaN","181.432","0.087","NaN","0","9",NA
"242","R_2UbDaFr8X42TjQi","standard","2","141","LP","1.25738905644119","182.433","NaN","182.561","0.128","NaN","0","9",NA
"243","R_2UbDaFr8X42TjQi","standard","2","142","LP","5.5010771219302","183.576","NaN","185.037","1.461","NaN","0","9",NA
"244","R_2UbDaFr8X42TjQi","standard","2","143","LP","5.5010771219302","186.04","NaN","186.348","0.308","NaN","0","9",NA
"245","R_2UbDaFr8X42TjQi","standard","2","144","LP","19.8235243429556","187.352","NaN","187.504","0.152","NaN","0","9",NA
"246","R_2UbDaFr8X42TjQi","standard","2","145","LP","2.15079707022835","188.505","NaN","188.56","0.055","NaN","0","9",NA
"247","R_2UbDaFr8X42TjQi","standard","2","146","LP","1.25738905644119","189.576","NaN","189.718","0.142","NaN","0","9",NA
"248","R_2UbDaFr8X42TjQi","standard","2","147","LP","19.8235243429556","190.72","NaN","191.039","0.319","NaN","0","9",NA
"249","R_2UbDaFr8X42TjQi","standard","2","148","LP","5.5010771219302","192.041","NaN","192.538","0.497","NaN","0","9",NA
"250","R_2UbDaFr8X42TjQi","standard","2","149","LP","30","193.545","NaN","193.577","0.032","NaN","0","9",NA
"251","R_2UbDaFr8X42TjQi","standard","2","150","LP","0.661783713916415","194.584","NaN","194.743","0.159","NaN","0","9",NA
"252","R_2UbDaFr8X42TjQi","standard","2","151","LP","3.49090909090909","195.753","NaN","196.059","0.306","NaN","0","9",NA
"253","R_2UbDaFr8X42TjQi","standard","2","152","LP","13.0392072382594","197.077","NaN","197.295","0.218","NaN","0","9",NA
"254","R_2UbDaFr8X42TjQi","standard","2","153","LP","19.8235243429556","198.297","NaN","198.392","0.095","NaN","0","9",NA
"255","R_2UbDaFr8X42TjQi","standard","2","154","LP","2.15079707022835","199.412","NaN","199.436","0.024","NaN","0","9",NA
"256","R_2UbDaFr8X42TjQi","standard","2","155","LP","2.15079707022835","200.441","NaN","200.511","0.07","NaN","0","9",NA
"257","R_2UbDaFr8X42TjQi","standard","2","156","LP","2.15079707022835","201.512","NaN","201.555","0.043","NaN","0","9",NA
"258","R_2UbDaFr8X42TjQi","standard","2","157","LP","1.25738905644119","202.561","NaN","202.733","0.172","NaN","0","9",NA
"259","R_2UbDaFr8X42TjQi","standard","2","158","LP","5.5010771219302","203.736","NaN","203.79","0.054","NaN","0","9",NA
"260","R_2UbDaFr8X42TjQi","standard","2","159","LP","0.264713485566566","204.808","NaN","204.992","0.184","NaN","0","9",NA
"261","R_2UbDaFr8X42TjQi","standard","2","160","LP","1.25738905644119","206.008","NaN","206.083","0.075","NaN","0","9",NA
"262","R_2UbDaFr8X42TjQi","standard","2","161","LP","2.15079707022835","207.093","NaN","207.793","0.7","NaN","0","9",NA
"263","R_2UbDaFr8X42TjQi","standard","2","162","LP","30","208.806","NaN","209.091","0.285","NaN","0","9",NA
"264","R_2UbDaFr8X42TjQi","standard","2","163","LP","5.5010771219302","210.107","NaN","213.248","3.141","NaN","0","9",NA
"265","R_2UbDaFr8X42TjQi","standard","2","164","LP","3.49090909090909","214.257","NaN","214.423","0.166","NaN","0","9",NA
"266","R_2UbDaFr8X42TjQi","standard","2","165","LP","19.8235243429556","215.425","NaN","215.66","0.235","NaN","0","9",NA
"267","R_2UbDaFr8X42TjQi","standard","2","166","LP","0.264713485566566","216.675","216.945","217.219","0.544","0.274","3","12",NA
"268","R_2UbDaFr8X42TjQi","standard","2","167","LP","19.8235243429556","218.224","NaN","218.342","0.118","NaN","0","12",NA
"269","R_2UbDaFr8X42TjQi","standard","2","168","LP","2.15079707022835","219.344","NaN","219.452","0.108","NaN","0","12",NA
"270","R_2UbDaFr8X42TjQi","standard","2","169","LP","1.25738905644119","220.456","NaN","220.547","0.091","NaN","0","12",NA
"271","R_2UbDaFr8X42TjQi","standard","2","170","LP","2.15079707022835","221.551","NaN","222.258","0.707","NaN","0","12",NA
"272","R_2UbDaFr8X42TjQi","standard","2","171","LP","13.0392072382594","223.27","NaN","223.758","0.488","NaN","0","12",NA
"273","R_2UbDaFr8X42TjQi","standard","2","172","LP","3.49090909090909","224.773","NaN","224.946","0.173","NaN","0","12",NA
"274","R_2UbDaFr8X42TjQi","standard","2","173","LP","30","225.951","NaN","226.052","0.101","NaN","0","12",NA
"275","R_2UbDaFr8X42TjQi","standard","2","174","LP","13.0392072382594","227.055","NaN","227.476","0.421","NaN","0","12",NA
"276","R_2UbDaFr8X42TjQi","standard","2","175","LP","19.8235243429556","228.488","NaN","228.704","0.216","NaN","0","12",NA
"277","R_2UbDaFr8X42TjQi","standard","2","176","LP","30","229.708","NaN","229.773","0.065","NaN","0","12",NA
"278","R_2UbDaFr8X42TjQi","standard","2","177","LP","3.49090909090909","230.787","NaN","231.356","0.569","NaN","0","12",NA
"279","R_2UbDaFr8X42TjQi","standard","2","178","LP","0.661783713916415","232.358","NaN","232.621","0.263","NaN","0","12",NA
"280","R_2UbDaFr8X42TjQi","standard","2","179","LP","8.51632916846187","233.625","NaN","234.45","0.825","NaN","0","12",NA
"281","R_2UbDaFr8X42TjQi","standard","2","180","LP","0.661783713916415","235.454","NaN","235.459","0.005","NaN","0","12",NA
"282","R_2UbDaFr8X42TjQi","standard","2","181","LP","5.5010771219302","236.473","NaN","236.553","0.08","NaN","0","12",NA
"283","R_2UbDaFr8X42TjQi","standard","2","182","LP","2.15079707022835","237.572","NaN","239.072","1.5","NaN","0","12",NA
"284","R_2UbDaFr8X42TjQi","standard","2","183","LP","0.264713485566566","240.088","NaN","240.188","0.1","NaN","0","12",NA
"285","R_2UbDaFr8X42TjQi","standard","2","184","LP","0.661783713916415","241.204","NaN","241.288","0.084","NaN","0","12",NA
"286","R_2UbDaFr8X42TjQi","standard","2","185","LP","19.8235243429556","242.305","NaN","242.564","0.259","NaN","0","12",NA
"287","R_2UbDaFr8X42TjQi","standard","2","186","LP","13.0392072382594","243.582","NaN","243.888","0.306","NaN","0","12",NA
"288","R_2UbDaFr8X42TjQi","standard","2","187","LP","8.51632916846187","244.907","NaN","245.155","0.248","NaN","0","12",NA
"289","R_2UbDaFr8X42TjQi","standard","2","188","LP","5.5010771219302","246.172","NaN","246.856","0.684","NaN","0","12",NA
"290","R_2UbDaFr8X42TjQi","standard","2","189","LP","3.49090909090909","247.873","NaN","248.032","0.159","NaN","0","12",NA
"291","R_2UbDaFr8X42TjQi","standard","2","190","LP","30","249.038","NaN","250.056","1.018","NaN","0","12",NA
"292","R_2UbDaFr8X42TjQi","standard","2","191","LP","2.15079707022835","251.088","NaN","251.262","0.174","NaN","0","12",NA
"293","R_2UbDaFr8X42TjQi","standard","2","192","LP","19.8235243429556","252.272","NaN","252.571","0.299","NaN","0","12",NA
"294","R_2UbDaFr8X42TjQi","standard","2","193","LP","0.661783713916415","253.603","254.272","255.071","1.468","0.799","3","15",NA
"295","R_2UbDaFr8X42TjQi","standard","2","194","LP","1.25738905644119","256.087","NaN","256.371","0.284","NaN","0","15",NA
"296","R_2UbDaFr8X42TjQi","standard","2","195","LP","0.661783713916415","257.383","NaN","257.391","0.008","NaN","0","15",NA
"297","R_2UbDaFr8X42TjQi","standard","2","196","LP","3.49090909090909","258.409","NaN","258.64","0.231","NaN","0","15",NA
"298","R_2UbDaFr8X42TjQi","standard","2","197","LP","2.15079707022835","259.655","NaN","259.839","0.184","NaN","0","15",NA
"299","R_2UbDaFr8X42TjQi","standard","2","198","LP","0.264713485566566","260.846","NaN","260.921","0.075","NaN","0","15",NA
"300","R_2UbDaFr8X42TjQi","standard","2","199","LP","0.264713485566566","261.924","NaN","262.03","0.106","NaN","0","15",NA
"301","R_2UbDaFr8X42TjQi","standard","2","200","LP","5.5010771219302","263.038","NaN","263.236","0.198","NaN","0","15",NA
"302","R_2UbDaFr8X42TjQi","standard","2","201","LP","30","264.239","NaN","264.369","0.13","NaN","0","15",NA
"303","R_2UbDaFr8X42TjQi","standard","2","202","LP","30","265.374","NaN","265.538","0.164","NaN","0","15",NA
"304","R_2UbDaFr8X42TjQi","standard","2","203","LP","13.0392072382594","266.554","NaN","266.622","0.068","NaN","0","15",NA
"305","R_2UbDaFr8X42TjQi","standard","2","204","LP","1.25738905644119","267.623","NaN","268.871","1.248","NaN","0","15",NA
"306","R_2UbDaFr8X42TjQi","standard","2","205","LP","30","269.887","NaN","270.136","0.249","NaN","0","15",NA
"307","R_2UbDaFr8X42TjQi","standard","2","206","LP","19.8235243429556","271.139","NaN","271.316","0.177","NaN","0","15",NA
"308","R_2UbDaFr8X42TjQi","standard","2","207","LP","2.15079707022835","272.316","NaN","272.426","0.11","NaN","0","15",NA
"309","R_2UbDaFr8X42TjQi","standard","2","208","LP","8.51632916846187","273.431","NaN","273.52","0.089","NaN","0","15",NA
"310","R_2UbDaFr8X42TjQi","standard","2","209","LP","5.5010771219302","274.687","NaN","274.765","0.078","NaN","0","15",NA
"311","R_2UbDaFr8X42TjQi","standard","2","210","LP","8.51632916846187","275.767","NaN","275.819","0.052","NaN","0","15",NA
"312","R_2UbDaFr8X42TjQi","standard","2","211","LP","0.264713485566566","276.821","NaN","277.012","0.191","NaN","0","15",NA
"313","R_2UbDaFr8X42TjQi","standard","2","212","LP","30","278.014","NaN","278.158","0.144","NaN","0","15",NA
"314","R_2UbDaFr8X42TjQi","standard","2","213","LP","13.0392072382594","279.167","NaN","279.293","0.126","NaN","0","15",NA
"315","R_2UbDaFr8X42TjQi","standard","2","214","LP","5.5010771219302","280.295","NaN","280.446","0.151","NaN","0","15",NA
"316","R_2UbDaFr8X42TjQi","standard","2","215","LP","0.661783713916415","281.456","NaN","281.55","0.094","NaN","0","15",NA
"317","R_2UbDaFr8X42TjQi","standard","2","216","LP","8.51632916846187","282.552","NaN","282.62","0.068","NaN","0","15",NA
"318","R_2UbDaFr8X42TjQi","standard","2","217","LP","0.661783713916415","283.623","NaN","283.647","0.024","NaN","0","15",NA
"319","R_2UbDaFr8X42TjQi","standard","2","218","LP","0.264713485566566","284.647","NaN","284.734","0.087","NaN","0","15",NA
"320","R_2UbDaFr8X42TjQi","standard","2","219","LP","0.264713485566566","285.737","NaN","285.76","0.023","NaN","0","15",NA
"321","R_2UbDaFr8X42TjQi","standard","2","220","LP","1.25738905644119","286.771","NaN","286.804","0.033","NaN","0","15",NA
"322","R_2UbDaFr8X42TjQi","standard","2","221","LP","19.8235243429556","287.806","NaN","287.916","0.11","NaN","0","15",NA
"323","R_2UbDaFr8X42TjQi","standard","2","222","LP","0.264713485566566","288.919","NaN","288.988","0.069","NaN","0","15",NA
"324","R_2UbDaFr8X42TjQi","standard","2","223","LP","2.15079707022835","290.004","NaN","290.036","0.032","NaN","0","15",NA
"325","R_2UbDaFr8X42TjQi","standard","2","224","LP","8.51632916846187","291.056","NaN","291.078","0.022","NaN","0","15",NA
"326","R_2UbDaFr8X42TjQi","standard","2","225","LP","0.264713485566566","292.08","NaN","292.14","0.06","NaN","0","15",NA
"327","R_2UbDaFr8X42TjQi","standard","2","226","LP","13.0392072382594","293.143","NaN","293.216","0.073","NaN","0","15",NA
"328","R_2UbDaFr8X42TjQi","standard","2","227","LP","3.49090909090909","294.223","NaN","294.317","0.094","NaN","0","15",NA
"329","R_2UbDaFr8X42TjQi","standard","2","228","LP","30","295.32","NaN","295.393","0.073","NaN","0","15",NA
"330","R_2UbDaFr8X42TjQi","standard","2","229","LP","13.0392072382594","296.403","NaN","296.486","0.083","NaN","0","15",NA
"331","R_2UbDaFr8X42TjQi","standard","2","230","LP","19.8235243429556","297.488","NaN","297.534","0.046","NaN","0","15",NA
"332","R_2UbDaFr8X42TjQi","standard","2","231","LP","30","298.543","NaN","298.604","0.061","NaN","0","15",NA
"333","R_2UbDaFr8X42TjQi","standard","2","232","LP","19.8235243429556","299.605","NaN","299.688","0.083","NaN","0","15",NA
"334","R_2UbDaFr8X42TjQi","standard","2","233","LP","0.661783713916415","300.707","NaN","300.814","0.107","NaN","0","15",NA
"335","R_2UbDaFr8X42TjQi","standard","2","234","LP","1.25738905644119","301.816","NaN","301.92","0.104","NaN","0","15",NA
"336","R_2UbDaFr8X42TjQi","standard","2","235","LP","13.0392072382594","302.92","NaN","302.987","0.067","NaN","0","15",NA
"337","R_2UbDaFr8X42TjQi","standard","2","236","LP","0.661783713916415","304.003","NaN","304.054","0.051","NaN","0","15",NA
"338","R_2UbDaFr8X42TjQi","standard","2","237","LP","3.49090909090909","305.055","NaN","305.143","0.088","NaN","0","15",NA
"339","R_2UbDaFr8X42TjQi","standard","2","238","LP","1.25738905644119","306.152","NaN","306.223","0.071","NaN","0","15",NA
"340","R_2UbDaFr8X42TjQi","standard","2","239","LP","0.264713485566566","307.232","NaN","307.355","0.123","NaN","0","15",NA
"341","R_2UbDaFr8X42TjQi","standard","2","240","LP","13.0392072382594","308.371","NaN","308.536","0.165","NaN","0","15",NA
"342","R_2UbDaFr8X42TjQi","standard","2","241","LP","0.661783713916415","309.543","NaN","309.613","0.07","NaN","0","15",NA
"343","R_2UbDaFr8X42TjQi","standard","2","242","LP","1.25738905644119","310.615","NaN","310.917","0.302","NaN","0","15",NA
"344","R_2UbDaFr8X42TjQi","standard","2","243","LP","19.8235243429556","311.921","NaN","312.148","0.227","NaN","0","15",NA
"345","R_2UbDaFr8X42TjQi","standard","2","244","LP","30","313.154","NaN","313.236","0.082","NaN","0","15",NA
"346","R_2UbDaFr8X42TjQi","standard","2","245","LP","3.49090909090909","314.24","NaN","314.453","0.213","NaN","0","15",NA
"347","R_2UbDaFr8X42TjQi","standard","2","246","LP","19.8235243429556","315.47","NaN","315.845","0.375","NaN","0","15",NA
"348","R_2UbDaFr8X42TjQi","standard","2","247","LP","0.661783713916415","316.848","NaN","317.07","0.222","NaN","0","15",NA
"349","R_2UbDaFr8X42TjQi","standard","2","248","LP","19.8235243429556","318.086","NaN","318.186","0.1","NaN","0","15",NA
"350","R_2UbDaFr8X42TjQi","standard","2","249","LP","1.25738905644119","319.191","NaN","319.272","0.081","NaN","0","15",NA
"351","R_2UbDaFr8X42TjQi","standard","2","250","LP","8.51632916846187","320.287","NaN","320.615","0.328","NaN","0","15",NA
"352","R_2UbDaFr8X42TjQi","standard","2","251","LP","0.661783713916415","321.615","NaN","321.854","0.239","NaN","0","15",NA
"353","R_2UbDaFr8X42TjQi","standard","2","252","LP","19.8235243429556","322.87","NaN","322.877","0.007","NaN","0","15",NA
"354","R_2UbDaFr8X42TjQi","standard","2","253","LP","0.661783713916415","323.885","NaN","323.899","0.014","NaN","0","15",NA
"355","R_2UbDaFr8X42TjQi","standard","2","254","LP","19.8235243429556","324.921","NaN","325.285","0.364","NaN","0","15",NA
"356","R_2UbDaFr8X42TjQi","standard","2","255","LP","3.49090909090909","326.294","NaN","326.771","0.477","NaN","0","15",NA
"357","R_2UbDaFr8X42TjQi","standard","2","256","LP","19.8235243429556","327.776","NaN","327.901","0.125","NaN","0","15",NA
"358","R_2UbDaFr8X42TjQi","standard","2","257","LP","2.15079707022835","328.912","NaN","328.987","0.075","NaN","0","15",NA
"359","R_2UbDaFr8X42TjQi","standard","2","258","LP","0.661783713916415","330.002","330.672",NA,"1.691",NA,"0","15",NA
"360","R_2UbDaFr8X42TjQi","standard","2","259","LP","30","332.7","NaN","342.052","9.352","NaN","0","15",NA
"361","R_2UbDaFr8X42TjQi","standard","2","260","LP","5.5010771219302","343.063","NaN","343.099","0.036","NaN","0","15",NA
"362","R_2UbDaFr8X42TjQi","standard","2","261","LP","1.25738905644119","344.107","NaN","344.189","0.082","NaN","0","15",NA
"363","R_2UbDaFr8X42TjQi","standard","2","262","LP","19.8235243429556","345.201","NaN","345.263","0.062","NaN","0","15",NA
"364","R_2UbDaFr8X42TjQi","standard","2","263","LP","5.5010771219302","346.283","NaN","346.354","0.071","NaN","0","15",NA
"365","R_2UbDaFr8X42TjQi","standard","2","264","LP","8.51632916846187","347.374","NaN","347.578","0.204","NaN","0","15",NA
"366","R_2UbDaFr8X42TjQi","standard","2","265","LP","13.0392072382594","348.585","NaN","348.785","0.2","NaN","0","15",NA
"367","R_2UbDaFr8X42TjQi","standard","2","266","LP","8.51632916846187","349.801","NaN","350.016","0.215","NaN","0","15",NA
"368","R_2UbDaFr8X42TjQi","standard","2","267","LP","0.264713485566566","351.022","NaN","351.24","0.218","NaN","0","15",NA
"369","R_2UbDaFr8X42TjQi","standard","2","268","LP","3.49090909090909","352.246","NaN","352.336","0.09","NaN","0","15",NA
"370","R_2UbDaFr8X42TjQi","standard","2","269","LP","3.49090909090909","353.336","NaN","354.433","1.097","NaN","0","15",NA
"371","R_2UbDaFr8X42TjQi","standard","2","270","LP","0.661783713916415","355.438","NaN","355.566","0.128","NaN","0","15",NA
"372","R_2UbDaFr8X42TjQi","standard","2","271","LP","2.15079707022835","356.575","NaN","356.728","0.153","NaN","0","15",NA
"373","R_2UbDaFr8X42TjQi","standard","2","272","LP","1.25738905644119","357.734","NaN","357.969","0.235","NaN","0","15",NA
"374","R_2UbDaFr8X42TjQi","standard","2","273","LP","19.8235243429556","358.983","NaN","359.217","0.234","NaN","0","15",NA
"375","R_2UbDaFr8X42TjQi","standard","2","274","LP","3.49090909090909","360.219","NaN","360.239","0.02","NaN","0","15",NA
"376","R_2UbDaFr8X42TjQi","standard","2","275","LP","2.15079707022835","361.247","NaN","361.258","0.011","NaN","0","15",NA
"377","R_2UbDaFr8X42TjQi","standard","2","276","LP","2.15079707022835","362.267","NaN","362.312","0.045","NaN","0","15",NA
"378","R_2UbDaFr8X42TjQi","standard","2","277","LP","3.49090909090909","363.319","NaN","363.544","0.225","NaN","0","15",NA
"379","R_2UbDaFr8X42TjQi","standard","2","278","LP","1.25738905644119","364.552","NaN","364.771","0.219","NaN","0","15",NA
"380","R_2UbDaFr8X42TjQi","standard","2","279","LP","0.264713485566566","365.774","NaN","365.841","0.067","NaN","0","15",NA
"381","R_2UbDaFr8X42TjQi","standard","2","280","LP","3.49090909090909","366.847","NaN","366.903","0.056","NaN","0","15",NA
"382","R_2UbDaFr8X42TjQi","standard","2","281","LP","0.264713485566566","367.926","NaN","367.987","0.061","NaN","0","15",NA
"383","R_2UbDaFr8X42TjQi","standard","2","282","LP","8.51632916846187","369.007","NaN","369.23","0.223","NaN","0","15",NA
"384","R_2UbDaFr8X42TjQi","standard","2","283","LP","2.15079707022835","370.238","NaN","370.332","0.094","NaN","0","15",NA
"385","R_2UbDaFr8X42TjQi","standard","2","284","LP","30","371.335","NaN","371.52","0.185","NaN","0","15",NA
"386","R_2UbDaFr8X42TjQi","standard","2","285","LP","5.5010771219302","372.521","NaN","372.577","0.056","NaN","0","15",NA
"387","R_2UbDaFr8X42TjQi","standard","2","286","LP","8.51632916846187","373.583","NaN","373.63","0.047","NaN","0","15",NA
"388","R_2UbDaFr8X42TjQi","standard","2","287","LP","2.15079707022835","374.634","NaN","374.728","0.094","NaN","0","15",NA
"389","R_2UbDaFr8X42TjQi","standard","2","288","LP","30","375.734","NaN","375.76","0.026","NaN","0","15",NA
"390","R_2UbDaFr8X42TjQi","standard","2","289","LP","30","376.767","NaN","376.794","0.027","NaN","0","15",NA
"391","R_2UbDaFr8X42TjQi","standard","2","290","LP","30","377.801","NaN","377.999","0.198","NaN","0","15",NA
"392","R_2UbDaFr8X42TjQi","standard","2","291","LP","2.15079707022835","379.006","NaN","379.168","0.162","NaN","0","15",NA
"393","R_2UbDaFr8X42TjQi","standard","2","292","LP","30","380.182","NaN","380.351","0.169","NaN","0","15",NA
"394","R_2UbDaFr8X42TjQi","standard","2","293","LP","3.49090909090909","381.367","NaN","381.751","0.384","NaN","0","15",NA
"395","R_2UbDaFr8X42TjQi","standard","2","294","LP","3.49090909090909","382.766","NaN","382.775","0.009","NaN","0","15",NA
"396","R_2UbDaFr8X42TjQi","standard","2","295","LP","30","383.782","NaN","384.039","0.257","NaN","0","15",NA
"397","R_2UbDaFr8X42TjQi","standard","2","296","LP","5.5010771219302","385.046","NaN","385.101","0.055","NaN","0","15",NA
"398","R_2UbDaFr8X42TjQi","standard","2","297","LP","3.49090909090909","386.101","NaN","386.224","0.123","NaN","0","15",NA
"399","R_2UbDaFr8X42TjQi","standard","2","298","LP","3.49090909090909","387.231","NaN","388.325","1.094","NaN","0","15",NA
"400","R_2UbDaFr8X42TjQi","standard","2","299","LP","0.661783713916415","389.326","NaN","389.815","0.489","NaN","0","15",NA
"401","R_2UbDaFr8X42TjQi","standard","2","300","LP","1.25738905644119","390.816","NaN","390.884","0.068","NaN","0","15",NA
"402","R_2UbDaFr8X42TjQi","standard","2","301","LP","5.5010771219302","391.913","NaN","391.943","0.03","NaN","0","15",NA
"403","R_2UbDaFr8X42TjQi","standard","2","302","LP","1.25738905644119","392.944","NaN","393.306","0.362","NaN","0","15",NA
"404","R_2UbDaFr8X42TjQi","standard","2","303","LP","13.0392072382594","394.311","NaN","395.046","0.735","NaN","0","15",NA
"405","R_2UbDaFr8X42TjQi","standard","2","304","LP","0.661783713916415","396.046","NaN","396.269","0.223","NaN","0","15",NA
"406","R_2UbDaFr8X42TjQi","standard","2","305","LP","30","397.283","NaN","398.581","1.298","NaN","0","15",NA
"407","R_2UbDaFr8X42TjQi","standard","2","306","LP","1.25738905644119","399.596","NaN","399.66","0.064","NaN","0","15",NA
"408","R_2UbDaFr8X42TjQi","standard","2","307","LP","3.49090909090909","400.663","NaN","401.233","0.57","NaN","0","15",NA
"409","R_2UbDaFr8X42TjQi","standard","2","308","LP","13.0392072382594","402.239","NaN","402.341","0.102","NaN","0","15",NA
"410","R_2UbDaFr8X42TjQi","standard","2","309","LP","3.49090909090909","403.342","NaN","403.356","0.014","NaN","0","15",NA
"411","R_2UbDaFr8X42TjQi","standard","2","310","LP","0.661783713916415","404.371","NaN","404.522","0.151","NaN","0","15",NA
"412","R_2UbDaFr8X42TjQi","standard","2","311","LP","0.264713485566566","405.527","NaN","405.694","0.167","NaN","0","15",NA
"413","R_2UbDaFr8X42TjQi","standard","2","312","LP","2.15079707022835","406.705","NaN","406.837","0.132","NaN","0","15",NA
"414","R_2UbDaFr8X42TjQi","standard","2","313","LP","19.8235243429556","407.838","NaN","408.031","0.193","NaN","0","15",NA
"415","R_2UbDaFr8X42TjQi","standard","2","314","LP","2.15079707022835","409.038","NaN","409.14","0.102","NaN","0","15",NA
"416","R_2UbDaFr8X42TjQi","standard","2","315","LP","8.51632916846187","410.145","NaN","410.22","0.075","NaN","0","15",NA
"417","R_2UbDaFr8X42TjQi","standard","2","316","LP","3.49090909090909","411.223","NaN","411.259","0.036","NaN","0","15",NA
"418","R_2UbDaFr8X42TjQi","standard","2","317","LP","5.5010771219302","412.268","NaN","412.487","0.219","NaN","0","15",NA
"419","R_2UbDaFr8X42TjQi","standard","2","318","LP","2.15079707022835","413.52","NaN","413.704","0.184","NaN","0","15",NA
"420","R_2UbDaFr8X42TjQi","standard","2","319","LP","0.264713485566566","414.716","NaN","414.731","0.015","NaN","0","15",NA
"421","R_2UbDaFr8X42TjQi","standard","2","320","LP","5.5010771219302","415.735","NaN","415.966","0.231","NaN","0","15",NA
"422","R_2UbDaFr8X42TjQi","standard","2","321","LP","1.25738905644119","416.981","NaN","417.139","0.158","NaN","0","15",NA
"423","R_2UbDaFr8X42TjQi","standard","2","322","LP","8.51632916846187","418.143","NaN","418.35","0.207","NaN","0","15",NA
"424","R_2UbDaFr8X42TjQi","standard","2","323","LP","19.8235243429556","419.351","NaN","419.409","0.058","NaN","0","15",NA
"425","R_2UbDaFr8X42TjQi","standard","2","324","LP","1.25738905644119","420.415","NaN","420.496","0.081","NaN","0","15",NA
"426","R_2UbDaFr8X42TjQi","standard","2","325","LP","8.51632916846187","421.516","NaN","421.782","0.266","NaN","0","15",NA
"427","R_2UbDaFr8X42TjQi","standard","2","326","LP","8.51632916846187","422.799","NaN","422.971","0.172","NaN","0","15",NA
"428","R_2UbDaFr8X42TjQi","standard","2","327","LP","30","423.997","NaN","424.178","0.181","NaN","0","15",NA
"429","R_2UbDaFr8X42TjQi","standard","2","328","LP","2.15079707022835","425.183","NaN","425.33","0.147","NaN","0","15",NA
"430","R_2UbDaFr8X42TjQi","standard","2","329","LP","8.51632916846187","426.333","NaN","426.636","0.303","NaN","0","15",NA
"431","R_2UbDaFr8X42TjQi","standard","2","330","LP","1.25738905644119","427.638","NaN","427.655","0.017","NaN","0","15",NA
"432","R_2UbDaFr8X42TjQi","standard","2","331","LP","3.49090909090909","428.665","NaN","428.881","0.216","NaN","0","15",NA
"433","R_2UbDaFr8X42TjQi","standard","2","332","LP","3.49090909090909","429.897","NaN","430.082","0.185","NaN","0","15",NA
"434","R_2UbDaFr8X42TjQi","standard","2","333","LP","8.51632916846187","431.098","NaN","431.149","0.051","NaN","0","15",NA
"435","R_2UbDaFr8X42TjQi","standard","2","334","LP","30","432.158","NaN","432.433","0.275","NaN","0","15",NA
"436","R_2UbDaFr8X42TjQi","standard","2","335","LP","8.51632916846187","433.439","NaN","433.664","0.225","NaN","0","15",NA
"437","R_2UbDaFr8X42TjQi","standard","2","336","LP","8.51632916846187","434.681","NaN","434.722","0.041","NaN","0","15",NA
"438","R_2UbDaFr8X42TjQi","standard","2","337","LP","2.15079707022835","435.727","NaN","435.772","0.045","NaN","0","15",NA
"439","R_2UbDaFr8X42TjQi","standard","2","338","LP","2.15079707022835","436.78","NaN","436.809","0.029","NaN","0","15",NA
"440","R_2UbDaFr8X42TjQi","standard","2","339","LP","3.49090909090909","437.815","NaN","437.919","0.104","NaN","0","15",NA
"441","R_2UbDaFr8X42TjQi","standard","2","340","LP","3.49090909090909","438.926","NaN","438.981","0.055","NaN","0","15",NA
"442","R_2UbDaFr8X42TjQi","standard","2","341","LP","5.5010771219302","439.997","NaN","440.049","0.052","NaN","0","15",NA
"443","R_2UbDaFr8X42TjQi","standard","2","342","LP","19.8235243429556","441.065","NaN","441.149","0.084","NaN","0","15",NA
"444","R_2UbDaFr8X42TjQi","standard","2","343","LP","1.25738905644119","442.166","NaN","442.28","0.114","NaN","0","15",NA
"445","R_2UbDaFr8X42TjQi","standard","2","344","LP","13.0392072382594","443.295","NaN","443.44","0.145","NaN","0","15",NA
"446","R_2UbDaFr8X42TjQi","standard","2","345","LP","0.264713485566566","444.448","444.715","445.036","0.588","0.321","3","18",NA
"447","R_2UbDaFr8X42TjQi","standard","2","346","LP","2.15079707022835","446.039","NaN","446.099","0.06","NaN","0","18",NA
"448","R_2UbDaFr8X42TjQi","standard","2","347","LP","5.5010771219302","447.116","NaN","447.179","0.063","NaN","0","18",NA
"449","R_2UbDaFr8X42TjQi","standard","2","348","LP","2.15079707022835","448.182","NaN","448.232","0.05","NaN","0","18",NA
"450","R_2UbDaFr8X42TjQi","standard","2","349","LP","19.8235243429556","449.239","NaN","449.298","0.059","NaN","0","18",NA
"451","R_2UbDaFr8X42TjQi","standard","2","350","LP","5.5010771219302","450.323","NaN","450.338","0.015","NaN","0","18",NA
"452","R_2UbDaFr8X42TjQi","standard","2","351","LP","5.5010771219302","451.343","NaN","451.434","0.091","NaN","0","18",NA
"453","R_2UbDaFr8X42TjQi","standard","2","352","LP","0.264713485566566","452.438","NaN","452.53","0.092","NaN","0","18",NA
"454","R_2UbDaFr8X42TjQi","standard","2","353","LP","1.25738905644119","453.535","NaN","453.546","0.011","NaN","0","18",NA
"455","R_2UbDaFr8X42TjQi","standard","2","354","LP","0.264713485566566","454.548","454.813","454.852","0.304","0.039","3","21",NA
"456","R_2UbDaFr8X42TjQi","standard","2","355","LP","0.264713485566566","455.855","NaN","455.985","0.13","NaN","0","21",NA
"457","R_2UbDaFr8X42TjQi","standard","2","356","LP","1.25738905644119","456.996","NaN","457.175","0.179","NaN","0","21",NA
"458","R_2UbDaFr8X42TjQi","standard","2","357","LP","2.15079707022835","458.183","NaN","458.426","0.243","NaN","0","21",NA
"459","R_2UbDaFr8X42TjQi","standard","2","358","LP","30","459.431","NaN","459.642","0.211","NaN","0","21",NA
"460","R_2UbDaFr8X42TjQi","standard","2","359","LP","3.49090909090909","460.646","NaN","460.859","0.213","NaN","0","21",NA
"461","R_2UbDaFr8X42TjQi","standard","2","360","LP","5.5010771219302","461.864","NaN","461.998","0.134","NaN","0","21",NA
"462","R_2UbDaFr8X42TjQi","standard","2","361","LP","30","463.018","NaN","463.149","0.131","NaN","0","21",NA
"463","R_2UbDaFr8X42TjQi","standard","2","362","LP","30","464.151","NaN","464.281","0.13","NaN","0","21",NA
"464","R_2UbDaFr8X42TjQi","standard","2","363","LP","3.49090909090909","465.295","468.795","469.565","4.27","0.77","3","24",NA
"465","R_2UbDaFr8X42TjQi","standard","2","364","LP","13.0392072382594","470.595","483.639","484.53","13.935","0.891","3","27",NA
"466","R_2UbDaFr8X42TjQi","standard","2","365","LP","1.25738905644119","485.535","486.809",NA,"2.282",NA,"0","27",NA
"467","R_2UbDaFr8X42TjQi","standard","2","366","LP","3.49090909090909","488.823","NaN","490.052","1.229","NaN","0","27",NA
"468","R_2UbDaFr8X42TjQi","standard","2","367","LP","2.15079707022835","491.062","NaN","492.55","1.488","NaN","0","27",NA
"469","R_2UbDaFr8X42TjQi","standard","2","368","LP","3.49090909090909","493.565","497.064",NA,"4.515",NA,"0","27",NA
"470","R_2UbDaFr8X42TjQi","standard","2","369","LP","0.661783713916415","499.096","499.759","500.737","1.641","0.978","3","30",NA
"471","R_2UbDaFr8X42TjQi","standard","2","370","LP","30","501.742","NaN","504.093","2.351","NaN","0","30",NA
"472","R_2UbDaFr8X42TjQi","standard","2","371","LP","0.264713485566566","505.112","505.382","506.241","1.129","0.859","3","33",NA
"473","R_2UbDaFr8X42TjQi","standard","2","372","LP","5.5010771219302","507.246","NaN","508.662","1.416","NaN","0","33",NA
"474","R_2UbDaFr8X42TjQi","standard","2","373","LP","0.264713485566566","509.678","509.95",NA,"1.283",NA,"0","33",NA
"475","R_2UbDaFr8X42TjQi","standard","2","374","LP","13.0392072382594","511.978","NaN","512.375","0.397","NaN","0","33",NA
"476","R_2UbDaFr8X42TjQi","standard","2","375","LP","30","513.383","NaN","514.545","1.162","NaN","0","33",NA
"477","R_2UbDaFr8X42TjQi","standard","2","376","LP","0.264713485566566","515.55","515.822",NA,"1.28",NA,"0","33",NA
"478","R_2UbDaFr8X42TjQi","standard","2","377","LP","13.0392072382594","517.831","NaN","518.256","0.425","NaN","0","33",NA
"479","R_2UbDaFr8X42TjQi","standard","2","378","LP","3.49090909090909","519.278","NaN","519.318","0.04","NaN","0","33",NA
"480","R_2UbDaFr8X42TjQi","standard","2","379","LP","5.5010771219302","520.326","NaN","520.462","0.136","NaN","0","33",NA
"481","R_2UbDaFr8X42TjQi","standard","2","380","LP","1.25738905644119","521.636","NaN","521.894","0.258","NaN","0","33",NA
"482","R_2UbDaFr8X42TjQi","standard","2","381","LP","1.25738905644119","522.895","NaN","522.947","0.052","NaN","0","33",NA
"483","R_2UbDaFr8X42TjQi","standard","2","382","LP","5.5010771219302","523.951","NaN","524.093","0.142","NaN","0","33",NA
"484","R_2UbDaFr8X42TjQi","standard","2","383","LP","19.8235243429556","525.095","NaN","525.32","0.225","NaN","0","33",NA
"485","R_2UbDaFr8X42TjQi","standard","2","384","LP","0.264713485566566","526.323","NaN","526.471","0.148","NaN","0","33",NA
"486","R_2UbDaFr8X42TjQi","standard","2","385","LP","1.25738905644119","527.478","NaN","527.678","0.2","NaN","0","33",NA
"487","R_2UbDaFr8X42TjQi","standard","2","386","LP","0.264713485566566","528.692","NaN","528.854","0.162","NaN","0","33",NA
"488","R_2UbDaFr8X42TjQi","standard","2","387","LP","8.51632916846187","529.855","NaN","529.86","0.005","NaN","0","33",NA
"489","R_2UbDaFr8X42TjQi","standard","2","388","LP","30","530.877","NaN","531.178","0.301","NaN","0","33",NA
"490","R_2UbDaFr8X42TjQi","standard","2","389","LP","30","532.184","NaN","532.346","0.162","NaN","0","33",NA
"491","R_2UbDaFr8X42TjQi","standard","2","390","LP","13.0392072382594","533.351","NaN","533.54","0.189","NaN","0","33",NA
"492","R_2UbDaFr8X42TjQi","standard","2","391","LP","3.49090909090909","534.544","NaN","534.762","0.218","NaN","0","33",NA
"493","R_2UbDaFr8X42TjQi","standard","2","392","LP","5.5010771219302","535.777","NaN","535.845","0.068","NaN","0","33",NA
"494","R_2UbDaFr8X42TjQi","standard","2","393","LP","0.264713485566566","536.848","NaN","536.959","0.111","NaN","0","33",NA
"495","R_2UbDaFr8X42TjQi","standard","2","394","LP","13.0392072382594","537.96","NaN","538.013","0.053","NaN","0","33",NA
"496","R_2UbDaFr8X42TjQi","standard","2","395","LP","0.264713485566566","539.016","NaN","539.064","0.048","NaN","0","33",NA
"497","R_2UbDaFr8X42TjQi","standard","2","396","LP","2.15079707022835","540.079","NaN","540.318","0.239","NaN","0","33",NA
"498","R_2UbDaFr8X42TjQi","standard","2","397","LP","19.8235243429556","541.319","NaN","541.539","0.22","NaN","0","33",NA
"499","R_2UbDaFr8X42TjQi","standard","2","398","LP","5.5010771219302","542.541","NaN","542.761","0.22","NaN","0","33",NA
"500","R_2UbDaFr8X42TjQi","standard","2","399","LP","19.8235243429556","543.777","NaN","543.829","0.052","NaN","0","33",NA
"501","R_2UbDaFr8X42TjQi","standard","2","400","LP","8.51632916846187","544.832","NaN","545.005","0.173","NaN","0","33",NA
"502","R_2UbDaFr8X42TjQi","standard","2","401","LP","3.49090909090909","546.007","NaN","546.023","0.016","NaN","0","33",NA
"503","R_2UbDaFr8X42TjQi","standard","2","402","LP","1.25738905644119","547.023","NaN","547.078","0.055","NaN","0","33",NA
"504","R_2UbDaFr8X42TjQi","standard","2","403","LP","0.661783713916415","548.11","NaN","548.292","0.182","NaN","0","33",NA
"505","R_2UbDaFr8X42TjQi","standard","2","404","LP","30","549.311","NaN","549.366","0.055","NaN","0","33",NA
"506","R_2UbDaFr8X42TjQi","standard","2","405","LP","5.5010771219302","550.367","NaN","550.433","0.066","NaN","0","33",NA
"507","R_2UbDaFr8X42TjQi","standard","2","406","LP","3.49090909090909","551.44","NaN","551.495","0.055","NaN","0","33",NA
"508","R_2UbDaFr8X42TjQi","standard","2","407","LP","19.8235243429556","552.503","NaN","552.615","0.112","NaN","0","33",NA
"509","R_2UbDaFr8X42TjQi","standard","2","408","LP","5.5010771219302","553.615","NaN","553.652","0.037","NaN","0","33",NA
"510","R_2UbDaFr8X42TjQi","standard","2","409","LP","8.51632916846187","554.655","NaN","554.801","0.146","NaN","0","33",NA
"511","R_2UbDaFr8X42TjQi","standard","2","410","LP","13.0392072382594","555.809","NaN","555.829","0.02","NaN","0","33",NA
"512","R_2UbDaFr8X42TjQi","standard","2","411","LP","13.0392072382594","556.832","NaN","556.921","0.089","NaN","0","33",NA
"513","R_2UbDaFr8X42TjQi","standard","2","412","LP","0.264713485566566","557.927","NaN","557.964","0.037","NaN","0","33",NA
"514","R_2UbDaFr8X42TjQi","standard","2","413","LP","0.661783713916415","558.978","NaN","559.083","0.105","NaN","0","33",NA
"515","R_2UbDaFr8X42TjQi","standard","2","414","LP","5.5010771219302","560.094","NaN","560.134","0.04","NaN","0","33",NA
"516","R_2UbDaFr8X42TjQi","standard","2","415","LP","8.51632916846187","561.135","NaN","561.211","0.076","NaN","0","33",NA
"517","R_2UbDaFr8X42TjQi","standard","2","416","LP","5.5010771219302","562.214","NaN","562.235","0.021","NaN","0","33",NA
"518","R_2UbDaFr8X42TjQi","standard","2","417","LP","5.5010771219302","563.24","NaN","563.26","0.02","NaN","0","33",NA
"519","R_2UbDaFr8X42TjQi","standard","2","418","LP","0.264713485566566","564.276","NaN","564.461","0.185","NaN","0","33",NA
"520","R_2UbDaFr8X42TjQi","standard","2","419","LP","2.15079707022835","565.479","NaN","565.636","0.157","NaN","0","33",NA
"521","R_2UbDaFr8X42TjQi","standard","2","420","LP","2.15079707022835","566.639","NaN","566.676","0.037","NaN","0","33",NA
"522","R_2UbDaFr8X42TjQi","standard","2","421","LP","5.5010771219302","567.692","NaN","567.921","0.229","NaN","0","33",NA
"523","R_2UbDaFr8X42TjQi","standard","2","422","LP","5.5010771219302","568.927","NaN","569.146","0.219","NaN","0","33",NA
"524","R_2UbDaFr8X42TjQi","standard","2","423","LP","2.15079707022835","570.152","NaN","570.29","0.138","NaN","0","33",NA
"525","R_2UbDaFr8X42TjQi","standard","2","424","LP","1.25738905644119","571.307","NaN","571.508","0.201","NaN","0","33",NA
"526","R_2UbDaFr8X42TjQi","standard","2","425","LP","3.49090909090909","572.514","NaN","572.678","0.164","NaN","0","33",NA
"527","R_2UbDaFr8X42TjQi","standard","2","426","LP","5.5010771219302","573.707","NaN","573.879","0.172","NaN","0","33",NA
"528","R_2UbDaFr8X42TjQi","standard","2","427","LP","3.49090909090909","574.895","NaN","575.09","0.195","NaN","0","33",NA
"529","R_2UbDaFr8X42TjQi","standard","2","428","LP","0.661783713916415","576.108","576.785","577.437","1.329","0.652","3","36",NA
"530","R_2UbDaFr8X42TjQi","standard","2","429","LP","19.8235243429556","578.44","NaN","581.192","2.752","NaN","0","36",NA
"531","R_2UbDaFr8X42TjQi","standard","2","430","LP","3.49090909090909","582.2","585.707","586.567","4.367","0.86","3","39",NA
"532","R_2UbDaFr8X42TjQi","standard","2","431","LP","8.51632916846187","587.577","NaN","587.936","0.359","NaN","0","39",NA
"533","R_2UbDaFr8X42TjQi","standard","2","432","LP","1.25738905644119","588.944","590.211","591.093","2.149","0.882","3","42",NA
"534","R_2UbDaFr8X42TjQi","standard","2","433","LP","1.25738905644119","592.108","NaN","592.936","0.828","NaN","0","42",NA
"535","R_2UbDaFr8X42TjQi","standard","2","434","LP","2.15079707022835","593.944","NaN","594.503","0.559","NaN","0","42",NA
"536","R_2UbDaFr8X42TjQi","standard","2","435","LP","19.8235243429556","595.51","NaN","595.891","0.381","NaN","0","42",NA
"537","R_2UbDaFr8X42TjQi","standard","2","436","LP","3.49090909090909","596.908","NaN","597.291","0.383","NaN","0","42",NA
"538","R_2UbDaFr8X42TjQi","standard","2","437","LP","19.8235243429556","598.308","NaN","599.154","0.846","NaN","0","42",NA
