"","subject_id","condition","n_block","n_trialIdx","f_timing_condition","n_scheduled_delay","n_trial_start_time","n_rewarded_time_fin","n_sell_time_fin","n_time_waited_fin","RT_fin","n_trial_earnings_fin","n_total_earnings_fin","keypress_times"
"1","R_2v7ceekgpfccsxP","standard","1","1","HP","12","0.005","12.018","12.377","12.372","0.359","3","3",""
"2","R_2v7ceekgpfccsxP","standard","1","2","HP","2","13.383","15.389","NA","3.017","NA","0","3",""
"3","R_2v7ceekgpfccsxP","standard","1","3","HP","18","17.404","35.418","35.735","18.331","0.317","3","6",""
"4","R_2v7ceekgpfccsxP","standard","1","4","HP","14","36.737","50.74","51.103","14.366","0.363","3","9",""
"5","R_2v7ceekgpfccsxP","standard","1","5","HP","18","52.116","70.118","70.481","18.365","0.363","3","12",""
"6","R_2v7ceekgpfccsxP","standard","1","6","HP","12","71.487","83.491","83.838","12.351","0.347","3","15",""
"7","R_2v7ceekgpfccsxP","standard","1","7","HP","2","84.841","86.844","NA","3.015","NA","0","15",""
"8","R_2v7ceekgpfccsxP","standard","1","8","HP","18","88.857","106.863","107.158","18.301","0.295","3","18",""
"9","R_2v7ceekgpfccsxP","standard","1","9","HP","16","108.161","124.165","124.528","16.367","0.363","3","21",""
"10","R_2v7ceekgpfccsxP","standard","1","10","HP","16","125.53","141.532","141.918","16.388","0.386","3","24",""
"11","R_2v7ceekgpfccsxP","standard","1","11","HP","10","142.924","152.927","153.265","10.341","0.338","3","27",""
"12","R_2v7ceekgpfccsxP","standard","1","12","HP","6","154.271","160.276","160.585","6.314","0.309","3","30",""
"13","R_2v7ceekgpfccsxP","standard","1","13","HP","14","161.589","175.594","175.898","14.309","0.304","3","33",""
"14","R_2v7ceekgpfccsxP","standard","1","14","HP","6","176.904","182.914","183.366","6.462","0.452","3","36",""
"15","R_2v7ceekgpfccsxP","standard","1","15","HP","16","184.37","200.374","200.689","16.319","0.315","3","39",""
"16","R_2v7ceekgpfccsxP","standard","1","16","HP","4","201.693","205.7","206.186","4.493","0.486","3","42",""
"17","R_2v7ceekgpfccsxP","standard","1","17","HP","12","207.191","219.196","219.516","12.325","0.32","3","45",""
"18","R_2v7ceekgpfccsxP","standard","1","18","HP","2","220.52","222.526","223.095","2.575","0.569","3","48",""
"19","R_2v7ceekgpfccsxP","standard","1","19","HP","8","224.101","232.104","232.552","8.451","0.448","3","51",""
"20","R_2v7ceekgpfccsxP","standard","1","20","HP","2","233.556","235.56","236.013","2.457","0.453","3","54",""
"21","R_2v7ceekgpfccsxP","standard","1","21","HP","12","237.019","249.022","249.44","12.421","0.418","3","57",""
"22","R_2v7ceekgpfccsxP","standard","1","22","HP","10","250.445","260.449","260.799","10.354","0.35","3","60",""
"23","R_2v7ceekgpfccsxP","standard","1","23","HP","10","261.816","271.817","272.098","10.282","0.281","3","63",""
"24","R_2v7ceekgpfccsxP","standard","1","24","HP","8","273.103","281.116","281.528","8.425","0.412","3","66",""
"25","R_2v7ceekgpfccsxP","standard","1","25","HP","20","282.531","302.535","303.022","20.491","0.487","3","66","1957"
"26","R_2v7ceekgpfccsxP","standard","1","26","HP","6","304.025","310.028","310.614","6.589","0.586","3","69",""
"27","R_2v7ceekgpfccsxP","standard","1","27","HP","8","311.616","319.619","320.063","8.447","0.444","3","72",""
"28","R_2v7ceekgpfccsxP","standard","1","28","HP","20","321.067","341.073","341.43","20.363","0.357","3","75",""
"29","R_2v7ceekgpfccsxP","standard","1","29","HP","18","342.432","360.434","360.821","18.389","0.387","3","78",""
"30","R_2v7ceekgpfccsxP","standard","1","30","HP","2","361.823","363.825","NA","3.006","NA","0","78",""
"31","R_2v7ceekgpfccsxP","standard","1","31","HP","6","365.831","371.834","372.214","6.383","0.38","3","81",""
"32","R_2v7ceekgpfccsxP","standard","1","32","HP","6","373.217","379.222","379.62","6.403","0.398","3","84",""
"33","R_2v7ceekgpfccsxP","standard","1","33","HP","2","380.622","382.624","383.263","2.641","0.639","3","87",""
"34","R_2v7ceekgpfccsxP","standard","1","34","HP","8","384.267","392.271","392.654","8.387","0.383","3","90",""
"35","R_2v7ceekgpfccsxP","standard","1","35","HP","18","393.661","411.719","412.351","18.69","0.632","3","90","2329"
"36","R_2v7ceekgpfccsxP","standard","1","36","HP","20","413.355","433.358","433.718","20.363","0.36","3","93",""
"37","R_2v7ceekgpfccsxP","standard","1","37","HP","10","434.721","444.722","445.143","10.422","0.421","3","96",""
"38","R_2v7ceekgpfccsxP","standard","1","38","HP","6","446.147","452.15","452.629","6.482","0.479","3","99",""
"39","R_2v7ceekgpfccsxP","standard","1","39","HP","14","453.633","467.636","468.008","14.375","0.372","3","102",""
"40","R_2v7ceekgpfccsxP","standard","1","40","HP","6","469.014","475.02","NA","7.011","NA","0","102",""
"41","R_2v7ceekgpfccsxP","standard","1","41","HP","14","477.026","491.028","491.352","14.326","0.324","3","105",""
"42","R_2v7ceekgpfccsxP","standard","1","42","HP","18","492.356","510.361","510.694","18.338","0.333","3","108",""
"43","R_2v7ceekgpfccsxP","standard","1","43","HP","18","511.699","529.703","530.108","18.409","0.405","3","111",""
"44","R_2v7ceekgpfccsxP","standard","1","44","HP","16","531.117","547.122","547.524","16.407","0.402","3","114",""
"45","R_2v7ceekgpfccsxP","standard","1","45","HP","12","548.528","560.53","560.87","12.342","0.34","3","117",""
"46","R_2v7ceekgpfccsxP","standard","1","46","HP","16","561.874","577.877","578.236","16.362","0.359","3","120",""
"47","R_2v7ceekgpfccsxP","standard","1","47","HP","20","579.237","599.239","599.586","20.349","0.347","3","123",""
"48","R_2v7ceekgpfccsxP","standard","1","48","HP","4","600.589","604.595","NA","5.018","NA","0","123",""
"49","R_2v7ceekgpfccsxP","standard","1","49","HP","10","606.618","616.623","617","10.382","0.377","3","126",""
"50","R_2v7ceekgpfccsxP","standard","1","50","HP","2","618.005","620.021","620.549","2.544","0.528","3","129",""
"51","R_2v7ceekgpfccsxP","standard","1","51","HP","10","621.553","631.558","631.916","10.363","0.358","3","129","1448"
"52","R_2v7ceekgpfccsxP","standard","1","52","HP","8","632.922","640.925","641.556","8.634","0.631","3","132",""
"53","R_2v7ceekgpfccsxP","standard","1","53","HP","12","642.561","654.568","654.92","12.359","0.352","3","135",""
"54","R_2v7ceekgpfccsxP","standard","1","54","HP","20","655.925","675.931","676.375","20.45","0.444","3","138",""
"55","R_2v7ceekgpfccsxP","standard","1","55","HP","6","677.38","683.385","683.743","6.363","0.358","3","141",""
"56","R_2v7ceekgpfccsxP","standard","1","56","HP","14","684.747","698.75","699.116","14.369","0.366","3","144",""
"57","R_2v7ceekgpfccsxP","standard","1","57","HP","4","700.12","704.122","704.611","4.491","0.489","3","147",""
"58","R_2v7ceekgpfccsxP","standard","1","58","HP","16","705.617","721.624","721.992","16.375","0.368","3","150",""
"59","R_2v7ceekgpfccsxP","standard","1","59","HP","6","723.001","729.017","729.565","6.564","0.548","3","153",""
"60","R_2v7ceekgpfccsxP","standard","1","60","HP","4","730.568","734.572","735.158","4.59","0.586","3","156",""
"61","R_2v7ceekgpfccsxP","standard","1","61","HP","14","736.16","750.165","750.542","14.382","0.377","3","159",""
"62","R_2v7ceekgpfccsxP","standard","1","62","HP","10","751.546","761.55","761.919","10.373","0.369","3","162",""
"63","R_2v7ceekgpfccsxP","standard","1","63","HP","16","762.921","778.922","779.28","16.359","0.358","3","165",""
"64","R_2v7ceekgpfccsxP","standard","1","64","HP","6","780.288","786.296","787.047","6.759","0.751","3","168",""
"65","R_2v7ceekgpfccsxP","standard","1","65","HP","2","788.051","790.056","790.745","2.694","0.689","3","171",""
"66","R_2v7ceekgpfccsxP","standard","1","66","HP","4","791.751","795.756","796.325","4.574","0.569","3","174",""
"67","R_2v7ceekgpfccsxP","standard","1","67","HP","6","797.328","803.33","803.777","6.449","0.447","3","177",""
"68","R_2v7ceekgpfccsxP","standard","1","68","HP","10","804.783","814.785","815.113","10.33","0.328","3","180",""
"69","R_2v7ceekgpfccsxP","standard","1","69","HP","8","816.116","824.118","824.551","8.435","0.433","3","183",""
"70","R_2v7ceekgpfccsxP","standard","1","70","HP","18","825.554","843.556","844.002","18.448","0.446","3","186",""
"71","R_2v7ceekgpfccsxP","standard","1","71","HP","6","845.01","851.018","851.486","6.476","0.468","3","189",""
"72","R_2v7ceekgpfccsxP","standard","1","72","HP","4","852.491","856.497","857.12","4.629","0.623","3","192",""
"73","R_2v7ceekgpfccsxP","standard","1","73","HP","2","858.123","860.127","861.054","2.931","0.927","3","195",""
"74","R_2v7ceekgpfccsxP","standard","1","74","HP","16","862.063","878.067","878.464","16.401","0.397","3","198",""
"75","R_2v7ceekgpfccsxP","standard","1","75","HP","4","879.47","883.473","884.095","4.625","0.622","3","201",""
"76","R_2v7ceekgpfccsxP","standard","1","76","HP","4","885.097","889.1","889.715","4.618","0.615","3","204",""
"77","R_2v7ceekgpfccsxP","standard","2","1","LP","3.49090909090909","0.001","3.493",NA,"4.498",NA,"0","204",NA
"78","R_2v7ceekgpfccsxP","standard","2","2","LP","30","5.501","NaN","12.079","6.578","NaN","0","204",NA
"79","R_2v7ceekgpfccsxP","standard","2","3","LP","30","13.082","NaN","21.742","8.66","NaN","0","204",NA
"80","R_2v7ceekgpfccsxP","standard","2","4","LP","19.8235243429556","22.745","NaN","34.195","11.45","NaN","0","204",NA
"81","R_2v7ceekgpfccsxP","standard","2","5","LP","0.661783713916415","35.201","35.866",NA,"1.678",NA,"0","204",NA
"82","R_2v7ceekgpfccsxP","standard","2","6","LP","2.15079707022835","37.88","NaN","39.814","1.934","NaN","0","204",NA
"83","R_2v7ceekgpfccsxP","standard","2","7","LP","3.49090909090909","40.816","NaN","41.897","1.081","NaN","0","204",NA
"84","R_2v7ceekgpfccsxP","standard","2","8","LP","3.49090909090909","42.9","NaN","43.022","0.122","NaN","0","204",NA
"85","R_2v7ceekgpfccsxP","standard","2","9","LP","5.5010771219302","44.023","49.525",NA,"6.504",NA,"0","204",NA
"86","R_2v7ceekgpfccsxP","standard","2","10","LP","30","51.528","NaN","63.856","12.328","NaN","0","204",NA
"87","R_2v7ceekgpfccsxP","standard","2","11","LP","19.8235243429556","64.861","NaN","81.578","16.717","NaN","0","204",NA
"88","R_2v7ceekgpfccsxP","standard","2","12","LP","30","82.586","NaN","108.29","25.704","NaN","0","204",NA
"89","R_2v7ceekgpfccsxP","standard","2","13","LP","1.25738905644119","109.296","110.56",NA,"2.276",NA,"0","204",NA
"90","R_2v7ceekgpfccsxP","standard","2","14","LP","13.0392072382594","112.573","125.617",NA,"14.05",NA,"0","204",NA
"91","R_2v7ceekgpfccsxP","standard","2","15","LP","5.5010771219302","127.625","133.127",NA,"6.505",NA,"0","204",NA
"92","R_2v7ceekgpfccsxP","standard","2","16","LP","8.51632916846187","135.133","143.65",NA,"9.521",NA,"0","204",NA
"93","R_2v7ceekgpfccsxP","standard","2","17","LP","8.51632916846187","145.656","154.173",NA,"9.519",NA,"0","204",NA
"94","R_2v7ceekgpfccsxP","standard","2","18","LP","8.51632916846187","156.176","164.697",NA,"9.53",NA,"0","204",NA
"95","R_2v7ceekgpfccsxP","standard","2","19","LP","5.5010771219302","166.717","172.234",NA,"6.526",NA,"0","204",NA
"96","R_2v7ceekgpfccsxP","standard","2","20","LP","13.0392072382594","174.245","187.286",NA,"14.05",NA,"0","204",NA
"97","R_2v7ceekgpfccsxP","standard","2","21","LP","2.15079707022835","189.296","191.454",NA,"3.173",NA,"0","204",NA
"98","R_2v7ceekgpfccsxP","standard","2","22","LP","0.264713485566566","193.471","193.736",NA,"1.267",NA,"0","204",NA
"99","R_2v7ceekgpfccsxP","standard","2","23","LP","2.15079707022835","195.739","197.891",NA,"3.158",NA,"0","204",NA
"100","R_2v7ceekgpfccsxP","standard","2","24","LP","0.661783713916415","199.898","200.561",NA,"1.668",NA,"0","204",NA
"101","R_2v7ceekgpfccsxP","standard","2","25","LP","2.15079707022835","202.567","204.72",NA,"3.156",NA,"0","204",NA
"102","R_2v7ceekgpfccsxP","standard","2","26","LP","0.264713485566566","206.725","206.991",NA,"1.269",NA,"0","204",NA
"103","R_2v7ceekgpfccsxP","standard","2","27","LP","3.49090909090909","208.995","212.488",NA,"4.502",NA,"0","204",NA
"104","R_2v7ceekgpfccsxP","standard","2","28","LP","2.15079707022835","214.499","216.652",NA,"3.157",NA,"0","204",NA
"105","R_2v7ceekgpfccsxP","standard","2","29","LP","30","218.657","248.66",NA,"31.007",NA,"0","204",NA
"106","R_2v7ceekgpfccsxP","standard","2","30","LP","0.264713485566566","250.665","250.942",NA,"1.285",NA,"0","204",NA
"107","R_2v7ceekgpfccsxP","standard","2","31","LP","2.15079707022835","252.952","255.109",NA,"3.165",NA,"0","204",NA
"108","R_2v7ceekgpfccsxP","standard","2","32","LP","0.264713485566566","257.117","257.388",NA,"1.278",NA,"0","204",NA
"109","R_2v7ceekgpfccsxP","standard","2","33","LP","2.15079707022835","259.397","261.553",NA,"3.166",NA,"0","204",NA
"110","R_2v7ceekgpfccsxP","standard","2","34","LP","13.0392072382594","263.564","276.618",NA,"14.056",NA,"0","204",NA
"111","R_2v7ceekgpfccsxP","standard","2","35","LP","2.15079707022835","278.623","280.775",NA,"3.157",NA,"0","204",NA
"112","R_2v7ceekgpfccsxP","standard","2","36","LP","3.49090909090909","282.781","286.272",NA,"4.498",NA,"0","204",NA
"113","R_2v7ceekgpfccsxP","standard","2","37","LP","2.15079707022835","288.28","290.433",NA,"3.156",NA,"0","204",NA
"114","R_2v7ceekgpfccsxP","standard","2","38","LP","5.5010771219302","292.437","297.941",NA,"6.507",NA,"0","204",NA
"115","R_2v7ceekgpfccsxP","standard","2","39","LP","19.8235243429556","299.944","319.77",NA,"20.833",NA,"0","204",NA
"116","R_2v7ceekgpfccsxP","standard","2","40","LP","1.25738905644119","321.791","323.051",NA,"2.271",NA,"0","204",NA
"117","R_2v7ceekgpfccsxP","standard","2","41","LP","0.264713485566566","325.063","325.333",NA,"1.275",NA,"0","204",NA
"118","R_2v7ceekgpfccsxP","standard","2","42","LP","0.661783713916415","327.339","328.006",NA,"1.683",NA,"0","204",NA
"119","R_2v7ceekgpfccsxP","standard","2","43","LP","5.5010771219302","330.022","335.525",NA,"6.508",NA,"0","204",NA
"120","R_2v7ceekgpfccsxP","standard","2","44","LP","8.51632916846187","337.53","346.049",NA,"9.527",NA,"0","204",NA
"121","R_2v7ceekgpfccsxP","standard","2","45","LP","2.15079707022835","348.058","350.212",NA,"3.158",NA,"0","204",NA
"122","R_2v7ceekgpfccsxP","standard","2","46","LP","2.15079707022835","352.223","354.375",NA,"3.155",NA,"0","204",NA
"123","R_2v7ceekgpfccsxP","standard","2","47","LP","30","356.379","386.383",NA,"31.007",NA,"0","204",NA
"124","R_2v7ceekgpfccsxP","standard","2","48","LP","3.49090909090909","388.387","391.883",NA,"4.516",NA,"0","204",NA
"125","R_2v7ceekgpfccsxP","standard","2","49","LP","0.661783713916415","393.914","394.578",NA,"1.674",NA,"0","204",NA
"126","R_2v7ceekgpfccsxP","standard","2","50","LP","0.264713485566566","396.589","396.858",NA,"1.274",NA,"0","204",NA
"127","R_2v7ceekgpfccsxP","standard","2","51","LP","1.25738905644119","398.864","400.123",NA,"2.262",NA,"0","204",NA
"128","R_2v7ceekgpfccsxP","standard","2","52","LP","2.15079707022835","402.13","404.286",NA,"3.163",NA,"0","204",NA
"129","R_2v7ceekgpfccsxP","standard","2","53","LP","2.15079707022835","406.294","408.447",NA,"3.163",NA,"0","204",NA
"130","R_2v7ceekgpfccsxP","standard","2","54","LP","8.51632916846187","410.458","418.978",NA,"9.535",NA,"0","204",NA
"131","R_2v7ceekgpfccsxP","standard","2","55","LP","30","420.994","450.998",NA,"31.012",NA,"0","204",NA
"132","R_2v7ceekgpfccsxP","standard","2","56","LP","19.8235243429556","453.013","472.839",NA,"20.832",NA,"0","204",NA
"133","R_2v7ceekgpfccsxP","standard","2","57","LP","13.0392072382594","474.846","487.89",NA,"14.056",NA,"0","204",NA
"134","R_2v7ceekgpfccsxP","standard","2","58","LP","30","489.912","519.915",NA,"31.009",NA,"0","204",NA
"135","R_2v7ceekgpfccsxP","standard","2","59","LP","8.51632916846187","521.922","530.441",NA,"9.523",NA,"0","204",NA
"136","R_2v7ceekgpfccsxP","standard","2","60","LP","8.51632916846187","532.445","540.964",NA,"9.529",NA,"0","204",NA
"137","R_2v7ceekgpfccsxP","standard","2","61","LP","5.5010771219302","542.975","548.478",NA,"6.514",NA,"0","204",NA
"138","R_2v7ceekgpfccsxP","standard","2","62","LP","19.8235243429556","550.492","570.318",NA,"20.832",NA,"0","204",NA
"139","R_2v7ceekgpfccsxP","standard","2","63","LP","19.8235243429556","572.325","592.15",NA,"20.827",NA,"0","204",NA
"140","R_2v7ceekgpfccsxP","standard","2","64","LP","0.661783713916415","594.153","594.816",NA,"1.665",NA,"0","204",NA
"141","R_2v7ceekgpfccsxP","standard","2","65","LP","2.15079707022835","596.818","598.971",NA,"3.165",NA,"0","204",NA
