"","subject_id","condition","n_block","n_trialIdx","f_timing_condition","n_scheduled_delay","n_trial_start_time","n_rewarded_time_fin","n_sell_time_fin","n_time_waited_fin","RT_fin","n_trial_earnings_fin","n_total_earnings_fin","keypress_times"
"1","R_2vZhfa2QS34pMxD","standard","1","1","HP","12","0.001","12.007","12.329","12.328","0.322","3","3",""
"2","R_2vZhfa2QS34pMxD","standard","1","2","HP","16","13.335","29.338","29.744","16.409","0.406","3","6",""
"3","R_2vZhfa2QS34pMxD","standard","1","3","HP","18","30.75","48.758","49.088","18.338","0.33","3","9",""
"4","R_2vZhfa2QS34pMxD","standard","1","4","HP","10","50.094","60.102","60.59","10.496","0.488","3","12",""
"5","R_2vZhfa2QS34pMxD","standard","1","5","HP","12","61.599","73.607","73.909","12.31","0.302","3","15",""
"6","R_2vZhfa2QS34pMxD","standard","1","6","HP","2","74.911","76.919","77.367","2.456","0.448","3","18",""
"7","R_2vZhfa2QS34pMxD","standard","1","7","HP","8","78.376","86.383","86.813","8.437","0.43","3","21",""
"8","R_2vZhfa2QS34pMxD","standard","1","8","HP","6","87.815","93.823","94.222","6.407","0.399","3","24",""
"9","R_2vZhfa2QS34pMxD","standard","1","9","HP","14","95.222","109.228","109.539","14.317","0.311","3","27",""
"10","R_2vZhfa2QS34pMxD","standard","1","10","HP","14","110.543","124.55","124.834","14.291","0.284","3","30",""
"11","R_2vZhfa2QS34pMxD","standard","1","11","HP","14","125.839","139.84","140.109","14.27","0.269","3","33",""
"12","R_2vZhfa2QS34pMxD","standard","1","12","HP","2","141.11","143.119","143.491","2.381","0.372","3","36",""
"13","R_2vZhfa2QS34pMxD","standard","1","13","HP","20","144.494","164.502","164.762","20.268","0.26","3","39",""
"14","R_2vZhfa2QS34pMxD","standard","1","14","HP","4","165.766","169.775","170.099","4.333","0.324","3","42",""
"15","R_2vZhfa2QS34pMxD","standard","1","15","HP","10","171.102","181.103","181.456","10.354","0.353","3","45",""
"16","R_2vZhfa2QS34pMxD","standard","1","16","HP","12","182.462","194.471","194.733","12.271","0.262","3","48",""
"17","R_2vZhfa2QS34pMxD","standard","1","17","HP","18","195.734","213.743","214.048","18.314","0.305","3","51",""
"18","R_2vZhfa2QS34pMxD","standard","1","18","HP","18","215.055","233.063","233.456","18.401","0.393","3","54",""
"19","R_2vZhfa2QS34pMxD","standard","1","19","HP","6","234.464","240.47","240.976","6.512","0.506","3","57",""
"20","R_2vZhfa2QS34pMxD","standard","1","20","HP","6","241.983","247.991","248.371","6.388","0.38","3","60",""
"21","R_2vZhfa2QS34pMxD","standard","1","21","HP","18","249.375","267.383","267.781","18.406","0.398","3","63",""
"22","R_2vZhfa2QS34pMxD","standard","1","22","HP","16","268.786","284.791","285.094","16.308","0.303","3","66",""
"23","R_2vZhfa2QS34pMxD","standard","1","23","HP","16","286.102","302.104","302.43","16.328","0.326","3","69",""
"24","R_2vZhfa2QS34pMxD","standard","1","24","HP","2","303.437","305.439","306.027","2.59","0.588","3","72",""
"25","R_2vZhfa2QS34pMxD","standard","1","25","HP","6","307.03","313.035","313.383","6.353","0.348","3","75",""
"26","R_2vZhfa2QS34pMxD","standard","1","26","HP","4","314.391","318.399","318.783","4.392","0.384","3","78",""
"27","R_2vZhfa2QS34pMxD","standard","1","27","HP","8","319.791","327.798","328.132","8.341","0.334","3","81",""
"28","R_2vZhfa2QS34pMxD","standard","1","28","HP","12","329.134","341.136","341.423","12.289","0.287","3","84",""
"29","R_2vZhfa2QS34pMxD","standard","1","29","HP","16","342.431","358.439","358.777","16.346","0.338","3","87",""
"30","R_2vZhfa2QS34pMxD","standard","1","30","HP","14","359.782","373.791","374.138","14.356","0.347","3","90",""
"31","R_2vZhfa2QS34pMxD","standard","1","31","HP","18","375.143","393.15","393.528","18.385","0.378","3","93",""
"32","R_2vZhfa2QS34pMxD","standard","1","32","HP","20","394.534","414.539","414.865","20.331","0.326","3","96",""
"33","R_2vZhfa2QS34pMxD","standard","1","33","HP","4","415.872","419.879","420.202","4.33","0.323","3","99",""
"34","R_2vZhfa2QS34pMxD","standard","1","34","HP","6","421.207","427.207","427.531","6.324","0.324","3","102",""
"35","R_2vZhfa2QS34pMxD","standard","1","35","HP","8","428.534","436.536","436.855","8.321","0.319","3","105",""
"36","R_2vZhfa2QS34pMxD","standard","1","36","HP","16","437.864","453.87","454.277","16.413","0.407","3","108",""
"37","R_2vZhfa2QS34pMxD","standard","1","37","HP","8","455.278","463.287","463.748","8.47","0.461","3","111",""
"38","R_2vZhfa2QS34pMxD","standard","1","38","HP","8","464.751","472.758","473.101","8.35","0.343","3","114",""
"39","R_2vZhfa2QS34pMxD","standard","1","39","HP","14","474.103","488.103","488.467","14.364","0.364","3","117",""
"40","R_2vZhfa2QS34pMxD","standard","1","40","HP","18","489.471","507.478","507.939","18.468","0.461","3","120",""
"41","R_2vZhfa2QS34pMxD","standard","1","41","HP","4","508.942","512.951","513.366","4.424","0.415","3","123",""
"42","R_2vZhfa2QS34pMxD","standard","1","42","HP","16","514.368","530.375","530.712","16.344","0.337","3","126",""
"43","R_2vZhfa2QS34pMxD","standard","1","43","HP","8","531.719","539.719","540.162","8.443","0.443","3","129",""
"44","R_2vZhfa2QS34pMxD","standard","1","44","HP","12","541.167","553.176","553.676","12.509","0.5","3","132",""
"45","R_2vZhfa2QS34pMxD","standard","1","45","HP","10","554.678","564.687","565.222","10.544","0.535","3","135",""
"46","R_2vZhfa2QS34pMxD","standard","1","46","HP","18","566.23","584.234","584.601","18.371","0.367","3","138",""
"47","R_2vZhfa2QS34pMxD","standard","1","47","HP","10","585.607","595.608","595.957","10.35","0.349","3","141",""
"48","R_2vZhfa2QS34pMxD","standard","1","48","HP","6","596.959","602.966","603.327","6.368","0.361","3","144",""
"49","R_2vZhfa2QS34pMxD","standard","1","49","HP","8","604.332","612.335","612.861","8.529","0.526","3","147",""
"50","R_2vZhfa2QS34pMxD","standard","1","50","HP","2","613.863","615.87","616.283","2.42","0.413","3","150",""
"51","R_2vZhfa2QS34pMxD","standard","1","51","HP","20","617.287","637.294","637.584","20.297","0.29","3","153",""
"52","R_2vZhfa2QS34pMxD","standard","1","52","HP","20","638.59","658.599","658.927","20.337","0.328","3","156",""
"53","R_2vZhfa2QS34pMxD","standard","1","53","HP","2","659.935","661.942","662.329","2.394","0.387","3","159",""
"54","R_2vZhfa2QS34pMxD","standard","1","54","HP","6","663.335","669.343","669.616","6.281","0.273","3","162",""
"55","R_2vZhfa2QS34pMxD","standard","1","55","HP","4","670.623","674.63","675.003","4.38","0.373","3","165",""
"56","R_2vZhfa2QS34pMxD","standard","1","56","HP","16","676.007","692.008","692.336","16.329","0.328","3","168",""
"57","R_2vZhfa2QS34pMxD","standard","1","57","HP","6","693.337","699.342","699.961","6.624","0.619","3","171",""
"58","R_2vZhfa2QS34pMxD","standard","1","58","HP","10","700.966","710.976","711.43","10.464","0.454","3","174",""
"59","R_2vZhfa2QS34pMxD","standard","1","59","HP","18","712.435","730.439","730.783","18.348","0.344","3","177",""
"60","R_2vZhfa2QS34pMxD","standard","1","60","HP","8","731.79","739.798","740.189","8.399","0.391","3","180",""
"61","R_2vZhfa2QS34pMxD","standard","1","61","HP","2","741.191","743.198","743.565","2.374","0.367","3","183",""
"62","R_2vZhfa2QS34pMxD","standard","1","62","HP","8","744.568","752.575","752.92","8.352","0.345","3","186",""
"63","R_2vZhfa2QS34pMxD","standard","1","63","HP","4","753.927","757.934","758.386","4.459","0.452","3","189",""
"64","R_2vZhfa2QS34pMxD","standard","1","64","HP","14","759.39","773.398","773.712","14.322","0.314","3","192",""
"65","R_2vZhfa2QS34pMxD","standard","1","65","HP","16","774.72","790.725","791.047","16.327","0.322","3","195",""
"66","R_2vZhfa2QS34pMxD","standard","1","66","HP","18","792.055","810.062","810.401","18.346","0.339","3","198",""
"67","R_2vZhfa2QS34pMxD","standard","1","67","HP","20","811.407","831.407","831.72","20.313","0.313","3","201",""
"68","R_2vZhfa2QS34pMxD","standard","1","68","HP","4","832.721","836.727","837.066","4.345","0.339","3","204",""
"69","R_2vZhfa2QS34pMxD","standard","1","69","HP","20","838.07","858.079","858.378","20.308","0.299","3","207",""
"70","R_2vZhfa2QS34pMxD","standard","1","70","HP","10","859.383","869.391","869.774","10.391","0.383","3","210",""
"71","R_2vZhfa2QS34pMxD","standard","1","71","HP","6","870.784","876.791","877.164","6.38","0.373","3","213",""
"72","R_2vZhfa2QS34pMxD","standard","1","72","HP","16","878.166","894.175","894.611","16.445","0.436","3","216",""
"73","R_2vZhfa2QS34pMxD","standard","2","1","LP","1.25738905644119","0.001","1.261","1.638","1.637","0.377","3","219",NA
"74","R_2vZhfa2QS34pMxD","standard","2","2","LP","30","2.642","NaN","10.327","7.685","NaN","0","219",NA
"75","R_2vZhfa2QS34pMxD","standard","2","3","LP","5.5010771219302","11.333","16.837","17.198","5.865","0.361","3","222",NA
"76","R_2vZhfa2QS34pMxD","standard","2","4","LP","30","18.205","NaN","28.258","10.053","NaN","0","222",NA
"77","R_2vZhfa2QS34pMxD","standard","2","5","LP","13.0392072382594","29.261","42.301","42.641","13.38","0.34","3","225",NA
"78","R_2vZhfa2QS34pMxD","standard","2","6","LP","5.5010771219302","43.645","49.15","49.525","5.88","0.375","3","228",NA
"79","R_2vZhfa2QS34pMxD","standard","2","7","LP","0.661783713916415","50.533","51.197","51.593","1.06","0.396","3","231",NA
"80","R_2vZhfa2QS34pMxD","standard","2","8","LP","8.51632916846187","52.597","61.118","61.483","8.886","0.365","3","234",NA
"81","R_2vZhfa2QS34pMxD","standard","2","9","LP","0.661783713916415","62.485","63.15","63.654","1.169","0.504","3","237",NA
"82","R_2vZhfa2QS34pMxD","standard","2","10","LP","1.25738905644119","64.662","65.926","66.358","1.696","0.432","3","240",NA
"83","R_2vZhfa2QS34pMxD","standard","2","11","LP","13.0392072382594","67.367","80.407","80.781","13.414","0.374","3","243",NA
"84","R_2vZhfa2QS34pMxD","standard","2","12","LP","19.8235243429556","81.79","NaN","97.355","15.565","NaN","0","243",NA
"85","R_2vZhfa2QS34pMxD","standard","2","13","LP","30","98.357","NaN","113.57","15.213","NaN","0","243",NA
"86","R_2vZhfa2QS34pMxD","standard","2","14","LP","13.0392072382594","114.575","NaN","126.06","11.485","NaN","0","243",NA
"87","R_2vZhfa2QS34pMxD","standard","2","15","LP","2.15079707022835","127.061","129.214","129.611","2.55","0.397","3","246",NA
"88","R_2vZhfa2QS34pMxD","standard","2","16","LP","13.0392072382594","130.613","NaN","143.264","12.651","NaN","0","246",NA
"89","R_2vZhfa2QS34pMxD","standard","2","17","LP","0.661783713916415","144.269","144.933","145.366","1.097","0.433","3","249",NA
"90","R_2vZhfa2QS34pMxD","standard","2","18","LP","0.264713485566566","146.378","146.645","147.011","0.633","0.366","3","252",NA
"91","R_2vZhfa2QS34pMxD","standard","2","19","LP","30","148.014","NaN","157.963","9.949","NaN","0","252",NA
"92","R_2vZhfa2QS34pMxD","standard","2","20","LP","0.661783713916415","158.965","159.63","159.957","0.992","0.327","3","255",NA
"93","R_2vZhfa2QS34pMxD","standard","2","21","LP","3.49090909090909","160.965","164.462","164.824","3.859","0.362","3","258",NA
"94","R_2vZhfa2QS34pMxD","standard","2","22","LP","0.661783713916415","165.83","166.494","166.798","0.968","0.304","3","261",NA
"95","R_2vZhfa2QS34pMxD","standard","2","23","LP","1.25738905644119","167.805","169.071","169.42","1.615","0.349","3","264",NA
"96","R_2vZhfa2QS34pMxD","standard","2","24","LP","0.661783713916415","170.422","171.086","171.442","1.02","0.356","3","267",NA
"97","R_2vZhfa2QS34pMxD","standard","2","25","LP","19.8235243429556","172.446","NaN","183.21","10.764","NaN","0","267",NA
"98","R_2vZhfa2QS34pMxD","standard","2","26","LP","30","184.213","NaN","193.647","9.434","NaN","0","267",NA
"99","R_2vZhfa2QS34pMxD","standard","2","27","LP","0.661783713916415","194.653","195.317","195.634","0.981","0.317","3","270",NA
"100","R_2vZhfa2QS34pMxD","standard","2","28","LP","30","196.634","NaN","207.153","10.519","NaN","0","270",NA
"101","R_2vZhfa2QS34pMxD","standard","2","29","LP","3.49090909090909","208.157","211.653","211.998","3.841","0.345","3","273",NA
"102","R_2vZhfa2QS34pMxD","standard","2","30","LP","3.49090909090909","213.005","216.501","216.892","3.887","0.391","3","276",NA
"103","R_2vZhfa2QS34pMxD","standard","2","31","LP","2.15079707022835","217.893","220.046","220.518","2.625","0.472","3","279",NA
"104","R_2vZhfa2QS34pMxD","standard","2","32","LP","30","221.526","NaN","233.534","12.008","NaN","0","279",NA
"105","R_2vZhfa2QS34pMxD","standard","2","33","LP","1.25738905644119","234.542","235.806","236.261","1.719","0.455","3","282",NA
"106","R_2vZhfa2QS34pMxD","standard","2","34","LP","8.51632916846187","237.262","245.783","246.139","8.877","0.356","3","285",NA
"107","R_2vZhfa2QS34pMxD","standard","2","35","LP","3.49090909090909","247.141","250.639","251.007","3.866","0.368","3","288",NA
"108","R_2vZhfa2QS34pMxD","standard","2","36","LP","19.8235243429556","252.007","NaN","261.726","9.719","NaN","0","288",NA
"109","R_2vZhfa2QS34pMxD","standard","2","37","LP","2.15079707022835","262.733","264.887","265.302","2.569","0.415","3","291",NA
"110","R_2vZhfa2QS34pMxD","standard","2","38","LP","30","266.31","NaN","273.035","6.725","NaN","0","291",NA
"111","R_2vZhfa2QS34pMxD","standard","2","39","LP","13.0392072382594","274.038","NaN","281.706","7.668","NaN","0","291",NA
"112","R_2vZhfa2QS34pMxD","standard","2","40","LP","3.49090909090909","282.709","286.206","286.53","3.821","0.324","3","294",NA
"113","R_2vZhfa2QS34pMxD","standard","2","41","LP","0.264713485566566","287.533","287.806","288.168","0.635","0.362","3","297",NA
"114","R_2vZhfa2QS34pMxD","standard","2","42","LP","30","289.173","NaN","300.29","11.117","NaN","0","297",NA
"115","R_2vZhfa2QS34pMxD","standard","2","43","LP","2.15079707022835","301.293","303.446","303.778","2.485","0.332","3","300",NA
"116","R_2vZhfa2QS34pMxD","standard","2","44","LP","2.15079707022835","304.782","306.933","307.692","2.91","0.759","3","303",NA
"117","R_2vZhfa2QS34pMxD","standard","2","45","LP","13.0392072382594","308.693","NaN","318.263","9.57","NaN","0","303",NA
"118","R_2vZhfa2QS34pMxD","standard","2","46","LP","2.15079707022835","319.269","321.422","321.732","2.463","0.31","3","306",NA
"119","R_2vZhfa2QS34pMxD","standard","2","47","LP","30","322.741","NaN","332.247","9.506","NaN","0","306",NA
"120","R_2vZhfa2QS34pMxD","standard","2","48","LP","0.264713485566566","333.253","333.525","333.984","0.731","0.459","3","309",NA
"121","R_2vZhfa2QS34pMxD","standard","2","49","LP","5.5010771219302","334.989","NaN","339.268","4.279","NaN","0","309",NA
"122","R_2vZhfa2QS34pMxD","standard","2","50","LP","8.51632916846187","340.277","NaN","345.553","5.276","NaN","0","309",NA
"123","R_2vZhfa2QS34pMxD","standard","2","51","LP","19.8235243429556","346.557","NaN","351.389","4.832","NaN","0","309",NA
"124","R_2vZhfa2QS34pMxD","standard","2","52","LP","8.51632916846187","352.398","NaN","357.51","5.112","NaN","0","309",NA
"125","R_2vZhfa2QS34pMxD","standard","2","53","LP","0.661783713916415","358.512","359.181","359.482","0.97","0.301","3","312",NA
"126","R_2vZhfa2QS34pMxD","standard","2","54","LP","5.5010771219302","360.491","NaN","365.155","4.664","NaN","0","312",NA
"127","R_2vZhfa2QS34pMxD","standard","2","55","LP","13.0392072382594","366.158","NaN","370.895","4.737","NaN","0","312",NA
"128","R_2vZhfa2QS34pMxD","standard","2","56","LP","0.661783713916415","371.902","372.566","372.892","0.99","0.326","3","315",NA
"129","R_2vZhfa2QS34pMxD","standard","2","57","LP","19.8235243429556","373.893","NaN","378.346","4.453","NaN","0","315",NA
"130","R_2vZhfa2QS34pMxD","standard","2","58","LP","0.661783713916415","379.349","380.014","380.315","0.966","0.301","3","318",NA
"131","R_2vZhfa2QS34pMxD","standard","2","59","LP","30","381.318","NaN","385.651","4.333","NaN","0","318",NA
"132","R_2vZhfa2QS34pMxD","standard","2","60","LP","30","386.653","NaN","391.582","4.929","NaN","0","318",NA
"133","R_2vZhfa2QS34pMxD","standard","2","61","LP","5.5010771219302","392.59","NaN","397.576","4.986","NaN","0","318",NA
"134","R_2vZhfa2QS34pMxD","standard","2","62","LP","13.0392072382594","398.581","NaN","403.329","4.748","NaN","0","318",NA
"135","R_2vZhfa2QS34pMxD","standard","2","63","LP","0.661783713916415","404.335","404.998","405.418","1.083","0.42","3","321",NA
"136","R_2vZhfa2QS34pMxD","standard","2","64","LP","3.49090909090909","406.422","409.917","410.303","3.881","0.386","3","324",NA
"137","R_2vZhfa2QS34pMxD","standard","2","65","LP","3.49090909090909","411.31","414.805","415.159","3.849","0.354","3","327",NA
"138","R_2vZhfa2QS34pMxD","standard","2","66","LP","2.15079707022835","416.165","418.317","418.628","2.463","0.311","3","330",NA
"139","R_2vZhfa2QS34pMxD","standard","2","67","LP","30","419.629","NaN","424.713","5.084","NaN","0","330",NA
"140","R_2vZhfa2QS34pMxD","standard","2","68","LP","2.15079707022835","425.718","427.869","428.256","2.538","0.387","3","333",NA
"141","R_2vZhfa2QS34pMxD","standard","2","69","LP","3.49090909090909","429.261","432.757","433.03","3.769","0.273","3","336",NA
"142","R_2vZhfa2QS34pMxD","standard","2","70","LP","3.49090909090909","434.038","437.534","437.879","3.841","0.345","3","339",NA
"143","R_2vZhfa2QS34pMxD","standard","2","71","LP","3.49090909090909","438.886","442.381","442.701","3.815","0.32","3","342",NA
"144","R_2vZhfa2QS34pMxD","standard","2","72","LP","2.15079707022835","443.709","445.861","446.154","2.445","0.293","3","345",NA
"145","R_2vZhfa2QS34pMxD","standard","2","73","LP","19.8235243429556","447.158","NaN","452.649","5.491","NaN","0","345",NA
"146","R_2vZhfa2QS34pMxD","standard","2","74","LP","30","453.653","NaN","459.816","6.163","NaN","0","345",NA
"147","R_2vZhfa2QS34pMxD","standard","2","75","LP","30","460.822","NaN","465.127","4.305","NaN","0","345",NA
"148","R_2vZhfa2QS34pMxD","standard","2","76","LP","5.5010771219302","466.133","471.637","471.999","5.866","0.362","3","348",NA
"149","R_2vZhfa2QS34pMxD","standard","2","77","LP","2.15079707022835","473.005","475.158","475.468","2.463","0.31","3","351",NA
"150","R_2vZhfa2QS34pMxD","standard","2","78","LP","3.49090909090909","476.477","479.974","480.31","3.833","0.336","3","354",NA
"151","R_2vZhfa2QS34pMxD","standard","2","79","LP","8.51632916846187","481.31","NaN","487.134","5.824","NaN","0","354",NA
"152","R_2vZhfa2QS34pMxD","standard","2","80","LP","1.25738905644119","488.141","489.406","489.867","1.726","0.461","3","357",NA
"153","R_2vZhfa2QS34pMxD","standard","2","81","LP","1.25738905644119","490.869","492.13","492.49","1.621","0.36","3","360",NA
"154","R_2vZhfa2QS34pMxD","standard","2","82","LP","0.264713485566566","493.493","493.765","494.045","0.552","0.28","3","363",NA
"155","R_2vZhfa2QS34pMxD","standard","2","83","LP","8.51632916846187","495.053","NaN","502.271","7.218","NaN","0","363",NA
"156","R_2vZhfa2QS34pMxD","standard","2","84","LP","19.8235243429556","503.278","NaN","508.551","5.273","NaN","0","363",NA
"157","R_2vZhfa2QS34pMxD","standard","2","85","LP","5.5010771219302","509.557","NaN","514.626","5.069","NaN","0","363",NA
"158","R_2vZhfa2QS34pMxD","standard","2","86","LP","13.0392072382594","515.627","NaN","521.817","6.19","NaN","0","363",NA
"159","R_2vZhfa2QS34pMxD","standard","2","87","LP","8.51632916846187","522.822","NaN","528.234","5.412","NaN","0","363",NA
"160","R_2vZhfa2QS34pMxD","standard","2","88","LP","30","529.239","NaN","539.234","9.995","NaN","0","363",NA
"161","R_2vZhfa2QS34pMxD","standard","2","89","LP","13.0392072382594","540.237","NaN","545.82","5.583","NaN","0","363",NA
"162","R_2vZhfa2QS34pMxD","standard","2","90","LP","0.661783713916415","546.822","547.486","547.869","1.047","0.383","3","366",NA
"163","R_2vZhfa2QS34pMxD","standard","2","91","LP","8.51632916846187","548.878","NaN","553.145","4.267","NaN","0","366",NA
"164","R_2vZhfa2QS34pMxD","standard","2","92","LP","0.264713485566566","554.15","554.423","554.783","0.633","0.36","3","369",NA
"165","R_2vZhfa2QS34pMxD","standard","2","93","LP","5.5010771219302","555.79","NaN","561.026","5.236","NaN","0","369",NA
"166","R_2vZhfa2QS34pMxD","standard","2","94","LP","3.49090909090909","562.03","NaN","565.492","3.462","NaN","0","369",NA
"167","R_2vZhfa2QS34pMxD","standard","2","95","LP","8.51632916846187","566.494","NaN","571.654","5.16","NaN","0","369",NA
"168","R_2vZhfa2QS34pMxD","standard","2","96","LP","8.51632916846187","572.661","NaN","577.098","4.437","NaN","0","369",NA
"169","R_2vZhfa2QS34pMxD","standard","2","97","LP","30","578.102","NaN","583.515","5.413","NaN","0","369",NA
"170","R_2vZhfa2QS34pMxD","standard","2","98","LP","0.661783713916415","584.518","585.182","585.508","0.99","0.326","3","372",NA
"171","R_2vZhfa2QS34pMxD","standard","2","99","LP","8.51632916846187","586.509","NaN","591.338","4.829","NaN","0","372",NA
"172","R_2vZhfa2QS34pMxD","standard","2","100","LP","3.49090909090909","592.341","595.834","596.276","3.935","0.442","3","375",NA
"173","R_2vZhfa2QS34pMxD","standard","2","101","LP","2.15079707022835","597.278","599.433","599.793","2.515","0.36","3","378",NA
