"","subject_id","condition","n_block","n_trialIdx","f_timing_condition","n_scheduled_delay","n_trial_start_time","n_rewarded_time_fin","n_sell_time_fin","n_time_waited_fin","RT_fin","n_trial_earnings_fin","n_total_earnings_fin","keypress_times"
"1","R_2WU3os1c16bwZF8","standard","1","1","LP","2.15079707022835","0.004","2.155","NA","3.162","NA","0","0",""
"2","R_2WU3os1c16bwZF8","standard","1","2","LP","19.8235243429556","4.17","24.016","24.869","20.699","0.853","3","3","c(""618"", ""628"", ""638"", ""5690"", ""7700"", ""8217"", ""8456"")"
"3","R_2WU3os1c16bwZF8","standard","1","3","LP","30","25.885","56.347","NA","32.449","NA","0","0","c(""123"", ""983"")"
"4","R_2WU3os1c16bwZF8","standard","1","4","LP","5.5010771219302","59.357","65.378","NA","9.634","NA","0","0",""
"5","R_2WU3os1c16bwZF8","standard","1","5","LP","2.15079707022835","70.543","73.331","NA","3.819","NA","0","0",""
"6","R_2WU3os1c16bwZF8","standard","1","6","LP","5.5010771219302","76.333","82.343","NA","8.042","NA","0","0",""
"7","R_2WU3os1c16bwZF8","standard","1","7","LP","13.0392072382594","86.347","100.906","NA","16.008","NA","0","0",""
"8","R_2WU3os1c16bwZF8","standard","1","8","LP","5.5010771219302","103.363","109.511","NA","7.973","NA","0","0",""
"9","R_2WU3os1c16bwZF8","standard","1","9","LP","2.15079707022835","112.396","115.429","NA","4.972","NA","0","0",""
"10","R_2WU3os1c16bwZF8","standard","1","10","LP","1.25738905644119","118.379","120.332","NA","2.957","NA","0","0",""
"11","R_2WU3os1c16bwZF8","standard","1","11","LP","19.8235243429556","122.355","142.461","NA","22.016","NA","0","0",""
"12","R_2WU3os1c16bwZF8","standard","1","12","LP","3.49090909090909","146.33","149.822","NA","4.505","NA","0","0",""
"13","R_2WU3os1c16bwZF8","standard","1","13","LP","8.51632916846187","151.867","160.395","NA","9.542","NA","0","0","c(""458"", ""1271"", ""1497"", ""1669"", ""1854"")"
"14","R_2WU3os1c16bwZF8","standard","1","14","LP","13.0392072382594","162.412","175.478","NA","14.089","NA","0","0",""
"15","R_2WU3os1c16bwZF8","standard","1","15","LP","5.5010771219302","177.519","183.343","NA","7.826","NA","0","0",""
"16","R_2WU3os1c16bwZF8","standard","1","16","LP","30","187.339","218.339","NA","32.002","NA","0","0",""
"17","R_2WU3os1c16bwZF8","standard","1","17","LP","3.49090909090909","220.344","224.358","NA","5.988","NA","0","0",""
"18","R_2WU3os1c16bwZF8","standard","1","18","LP","19.8235243429556","227.347","247.331","NA","20.985","NA","0","0",""
"19","R_2WU3os1c16bwZF8","standard","1","19","LP","19.8235243429556","249.347","269.354","NA","21.992","NA","0","0",""
"20","R_2WU3os1c16bwZF8","standard","1","20","LP","19.8235243429556","272.386","292.339","NA","21.966","NA","0","0",""
"21","R_2WU3os1c16bwZF8","standard","1","21","LP","3.49090909090909","296.339","300.331","NA","4.996","NA","0","0",""
"22","R_2WU3os1c16bwZF8","standard","1","22","LP","19.8235243429556","303.339","323.17","NA","20.851","NA","0","0",""
"23","R_2WU3os1c16bwZF8","standard","1","23","LP","0.264713485566566","325.198","325.466","NA","1.292","NA","0","0",""
"24","R_2WU3os1c16bwZF8","standard","1","24","LP","0.264713485566566","327.508","327.79","NA","1.287","NA","0","0",""
"25","R_2WU3os1c16bwZF8","standard","1","25","LP","3.49090909090909","329.81","333.309","NA","4.513","NA","0","0",""
"26","R_2WU3os1c16bwZF8","standard","1","26","LP","30","335.325","365.33","NA","31.008","NA","0","0",""
"27","R_2WU3os1c16bwZF8","standard","1","27","LP","13.0392072382594","367.339","380.393","NA","14.068","NA","0","0",""
"28","R_2WU3os1c16bwZF8","standard","1","28","LP","1.25738905644119","382.412","383.686","NA","2.279","NA","0","0",""
"29","R_2WU3os1c16bwZF8","standard","1","29","LP","13.0392072382594","385.698","398.739","NA","14.044","NA","0","0",""
"30","R_2WU3os1c16bwZF8","standard","1","30","LP","13.0392072382594","400.784","413.824","414.68","13.896","0.856","3","3",""
"31","R_2WU3os1c16bwZF8","standard","1","31","LP","2.15079707022835","415.687","417.839","NA","3.159","NA","0","3",""
"32","R_2WU3os1c16bwZF8","standard","1","32","LP","19.8235243429556","419.85","439.691","440.47","20.62","0.779","3","3","25"
"33","R_2WU3os1c16bwZF8","standard","1","33","LP","19.8235243429556","441.483","461.318","462.188","20.705","0.87","3","3","18819"
"34","R_2WU3os1c16bwZF8","standard","1","34","LP","5.5010771219302","463.201","469.358","NA","8.149","NA","0","0","c(""883"", ""1459"", ""1465"", ""1589"", ""1821"", ""2068"", ""2301"", ""2478"")"
"35","R_2WU3os1c16bwZF8","standard","1","35","LP","30","472.361","503.354","NA","33.003","NA","0","0",""
"36","R_2WU3os1c16bwZF8","standard","1","36","LP","5.5010771219302","507.331","512.841","513.744","6.413","0.903","3","3",""
"37","R_2WU3os1c16bwZF8","standard","1","37","LP","30","514.745","544.756","545.747","31.002","0.991","3","3","70"
"38","R_2WU3os1c16bwZF8","standard","1","38","LP","0.264713485566566","546.754","547.021","547.196","0.442","0.175","3","6",""
"39","R_2WU3os1c16bwZF8","standard","1","39","LP","0.661783713916415","548.219","548.882","549.836","1.617","0.954","3","9",""
"40","R_2WU3os1c16bwZF8","standard","1","40","LP","5.5010771219302","550.905","556.414","557.38","6.475","0.966","3","12",""
"41","R_2WU3os1c16bwZF8","standard","1","41","LP","8.51632916846187","558.395","566.925","567.748","9.353","0.823","3","12","8067"
"42","R_2WU3os1c16bwZF8","standard","1","42","LP","13.0392072382594","568.757","582.337","NA","15.588","NA","0","9","460"
"43","R_2WU3os1c16bwZF8","standard","1","43","LP","8.51632916846187","586.361","595.359","NA","10.987","NA","0","9",""
"44","R_2WU3os1c16bwZF8","standard","1","44","LP","0.264713485566566","599.344","600.34","NA","2.012","NA","0","9",""
"45","R_2WU3os1c16bwZF8","standard","1","45","LP","30","603.359","634.342","NA","31.994","NA","0","9",""
"46","R_2WU3os1c16bwZF8","standard","1","46","LP","19.8235243429556","637.353","657.371","NA","22.097","NA","0","9",""
"47","R_2WU3os1c16bwZF8","standard","1","47","LP","1.25738905644119","661.354","663.367","NA","4.136","NA","0","9",""
"48","R_2WU3os1c16bwZF8","standard","1","48","LP","1.25738905644119","667.345","669.353","NA","3.991","NA","0","9",""
"49","R_2WU3os1c16bwZF8","standard","1","49","LP","2.15079707022835","672.363","675.347","NA","4.996","NA","0","9",""
"50","R_2WU3os1c16bwZF8","standard","1","50","LP","0.661783713916415","679.337","680.337","NA","2.035","NA","0","9",""
"51","R_2WU3os1c16bwZF8","standard","1","51","LP","0.264713485566566","683.333","684.343","NA","3.003","NA","0","9",""
"52","R_2WU3os1c16bwZF8","standard","1","52","LP","3.49090909090909","688.346","692.333","NA","4.993","NA","0","9",""
"53","R_2WU3os1c16bwZF8","standard","1","53","LP","8.51632916846187","695.332","704.343","NA","10.066","NA","0","9",""
"54","R_2WU3os1c16bwZF8","standard","1","54","LP","1.25738905644119","707.356","709.336","NA","2.992","NA","0","9",""
"55","R_2WU3os1c16bwZF8","standard","1","55","LP","1.25738905644119","712.382","714.332","NA","2.979","NA","0","9",""
"56","R_2WU3os1c16bwZF8","standard","1","56","LP","0.661783713916415","717.346","718.855","NA","2.992","NA","0","9",""
"57","R_2WU3os1c16bwZF8","standard","1","57","LP","13.0392072382594","721.352","734.394","NA","14.061","NA","0","9",""
"58","R_2WU3os1c16bwZF8","standard","1","58","LP","30","736.415","766.419","767.223","30.808","0.804","3","6","c(""52"", ""191"")"
"59","R_2WU3os1c16bwZF8","standard","1","59","LP","0.661783713916415","768.229","768.906","NA","1.694","NA","0","6",""
"60","R_2WU3os1c16bwZF8","standard","1","60","LP","8.51632916846187","770.941","779.458","NA","9.534","NA","0","6",""
"61","R_2WU3os1c16bwZF8","standard","1","61","LP","0.661783713916415","781.482","782.155","NA","1.683","NA","0","3","116"
"62","R_2WU3os1c16bwZF8","standard","1","62","LP","2.15079707022835","784.331","787.346","NA","4.231","NA","0","3",""
"63","R_2WU3os1c16bwZF8","standard","1","63","LP","13.0392072382594","789.563","802.61","NA","14.052","NA","0","3",""
"64","R_2WU3os1c16bwZF8","standard","1","64","LP","3.49090909090909","804.618","808.12","NA","4.507","NA","0","0","86"
"65","R_2WU3os1c16bwZF8","standard","1","65","LP","8.51632916846187","810.124","818.642","NA","9.529","NA","0","0",""
"66","R_2WU3os1c16bwZF8","standard","1","66","LP","5.5010771219302","820.66","826.17","NA","6.527","NA","0","0",""
"67","R_2WU3os1c16bwZF8","standard","1","67","LP","0.264713485566566","828.208","828.487","NA","1.283","NA","0","0",""
"68","R_2WU3os1c16bwZF8","standard","1","68","LP","3.49090909090909","830.503","834.003","NA","4.509","NA","0","0",""
"69","R_2WU3os1c16bwZF8","standard","1","69","LP","0.661783713916415","836.02","836.685","NA","1.672","NA","0","0",""
"70","R_2WU3os1c16bwZF8","standard","1","70","LP","1.25738905644119","838.708","839.985","NA","2.296","NA","0","0",""
"71","R_2WU3os1c16bwZF8","standard","1","71","LP","8.51632916846187","842.025","850.547","NA","9.535","NA","0","0",""
"72","R_2WU3os1c16bwZF8","standard","1","72","LP","5.5010771219302","852.563","858.066","NA","6.524","NA","0","0",""
"73","R_2WU3os1c16bwZF8","standard","1","73","LP","19.8235243429556","860.102","879.93","NA","20.832","NA","0","0",""
"74","R_2WU3os1c16bwZF8","standard","1","74","LP","1.25738905644119","881.935","883.194","NA","2.274","NA","0","0",""
"75","R_2WU3os1c16bwZF8","standard","1","75","LP","2.15079707022835","885.212","887.37","NA","3.176","NA","0","0",""
"76","R_2WU3os1c16bwZF8","standard","2","1","LP","13.0392072382594","0.002","13.046",NA,"14.054",NA,"0","0",NA
"77","R_2WU3os1c16bwZF8","standard","2","2","LP","13.0392072382594","15.062","NaN","15.291","0.229","NaN","0","0",NA
"78","R_2WU3os1c16bwZF8","standard","2","3","LP","30","16.307","NaN","17.259","0.952","NaN","0","0",NA
"79","R_2WU3os1c16bwZF8","standard","2","4","LP","0.661783713916415","18.277","NaN","18.86","0.583","NaN","0","0",NA
"80","R_2WU3os1c16bwZF8","standard","2","5","LP","13.0392072382594","19.87","NaN","20.391","0.521","NaN","0","0",NA
"81","R_2WU3os1c16bwZF8","standard","2","6","LP","0.264713485566566","21.407","21.681",NA,"1.287",NA,"0","0",NA
"82","R_2WU3os1c16bwZF8","standard","2","7","LP","0.661783713916415","23.708","NaN","23.797","0.089","NaN","0","0",NA
"83","R_2WU3os1c16bwZF8","standard","2","8","LP","13.0392072382594","24.821","NaN","24.921","0.1","NaN","0","0",NA
"84","R_2WU3os1c16bwZF8","standard","2","9","LP","0.264713485566566","25.926","NaN","25.961","0.035","NaN","0","0",NA
"85","R_2WU3os1c16bwZF8","standard","2","10","LP","19.8235243429556","26.965","NaN","27.079","0.114","NaN","0","0",NA
"86","R_2WU3os1c16bwZF8","standard","2","11","LP","2.15079707022835","28.091","NaN","28.277","0.186","NaN","0","0",NA
"87","R_2WU3os1c16bwZF8","standard","2","12","LP","13.0392072382594","29.285","NaN","29.393","0.108","NaN","0","0",NA
"88","R_2WU3os1c16bwZF8","standard","2","13","LP","1.25738905644119","30.407","NaN","30.506","0.099","NaN","0","0",NA
"89","R_2WU3os1c16bwZF8","standard","2","14","LP","0.661783713916415","31.514","32.19",NA,"1.695",NA,"0","0",NA
"90","R_2WU3os1c16bwZF8","standard","2","15","LP","2.15079707022835","34.227","36.384",NA,"3.162",NA,"0","0",NA
"91","R_2WU3os1c16bwZF8","standard","2","16","LP","8.51632916846187","38.389","47.779",NA,"11.374",NA,"0","0",NA
"92","R_2WU3os1c16bwZF8","standard","2","17","LP","0.661783713916415","51.813","52.788",NA,"2.915",NA,"0","0",NA
"93","R_2WU3os1c16bwZF8","standard","2","18","LP","30","55.884","86.733",NA,"32.853",NA,"0","0",NA
"94","R_2WU3os1c16bwZF8","standard","2","19","LP","8.51632916846187","89.742","98.737",NA,"10.006",NA,"0","0",NA
"95","R_2WU3os1c16bwZF8","standard","2","20","LP","0.264713485566566","101.728","102.734",NA,"3.007",NA,"0","0",NA
"96","R_2WU3os1c16bwZF8","standard","2","21","LP","8.51632916846187","106.733","115.749",NA,"11.006",NA,"0","0",NA
"97","R_2WU3os1c16bwZF8","standard","2","22","LP","0.661783713916415","119.741","120.729",NA,"1.994",NA,"0","0",NA
"98","R_2WU3os1c16bwZF8","standard","2","23","LP","13.0392072382594","123.741","137.735",NA,"16.009",NA,"0","0",NA
"99","R_2WU3os1c16bwZF8","standard","2","24","LP","0.661783713916415","141.731","142.729",NA,"2.008",NA,"0","0",NA
"100","R_2WU3os1c16bwZF8","standard","2","25","LP","1.25738905644119","145.73","147.747",NA,"4.014",NA,"0","0",NA
"101","R_2WU3os1c16bwZF8","standard","2","26","LP","2.15079707022835","151.736","154.729",NA,"4.016",NA,"0","0",NA
"102","R_2WU3os1c16bwZF8","standard","2","27","LP","2.15079707022835","157.763","160.81",NA,"5.236",NA,"0","0",NA
"103","R_2WU3os1c16bwZF8","standard","2","28","LP","3.49090909090909","164.733","168.73",NA,"5.999",NA,"0","0",NA
"104","R_2WU3os1c16bwZF8","standard","2","29","LP","2.15079707022835","171.743","174.727",NA,"4.132",NA,"0","0",NA
"105","R_2WU3os1c16bwZF8","standard","2","30","LP","19.8235243429556","177.749","197.741",NA,"21.983",NA,"0","0",NA
"106","R_2WU3os1c16bwZF8","standard","2","31","LP","19.8235243429556","201.741","221.735",NA,"23.418",NA,"0","0",NA
"107","R_2WU3os1c16bwZF8","standard","2","32","LP","0.661783713916415","226.729","227.742",NA,"2.997",NA,"0","0",NA
"108","R_2WU3os1c16bwZF8","standard","2","33","LP","3.49090909090909","230.736","234.728",NA,"5.994",NA,"0","0",NA
"109","R_2WU3os1c16bwZF8","standard","2","34","LP","30","238.726","268.757",NA,"32.001",NA,"0","0",NA
"110","R_2WU3os1c16bwZF8","standard","2","35","LP","5.5010771219302","271.73","277.727",NA,"7.031",NA,"0","0",NA
"111","R_2WU3os1c16bwZF8","standard","2","36","LP","0.264713485566566","280.728","281.737",NA,"2.026",NA,"0","0",NA
"112","R_2WU3os1c16bwZF8","standard","2","37","LP","30","284.789","315.73",NA,"31.947",NA,"0","0",NA
"113","R_2WU3os1c16bwZF8","standard","2","38","LP","0.661783713916415","317.801","318.777",NA,"2.925",NA,"0","0",NA
"114","R_2WU3os1c16bwZF8","standard","2","39","LP","2.15079707022835","321.75","324.726",NA,"3.989",NA,"0","0",NA
"115","R_2WU3os1c16bwZF8","standard","2","40","LP","19.8235243429556","327.742","357.435",NA,"30.697",NA,"0","0",NA
"116","R_2WU3os1c16bwZF8","standard","2","41","LP","0.264713485566566","359.446","NaN","359.452","0.006","NaN","0","0",NA
"117","R_2WU3os1c16bwZF8","standard","2","42","LP","1.25738905644119","360.453","361.735",NA,"3.274",NA,"0","0",NA
"118","R_2WU3os1c16bwZF8","standard","2","43","LP","19.8235243429556","364.733","384.729",NA,"21.002",NA,"0","0",NA
"119","R_2WU3os1c16bwZF8","standard","2","44","LP","2.15079707022835","387.728","390.727",NA,"4.001",NA,"0","0",NA
"120","R_2WU3os1c16bwZF8","standard","2","45","LP","8.51632916846187","393.733","402.727",NA,"10.01",NA,"0","0",NA
"121","R_2WU3os1c16bwZF8","standard","2","46","LP","8.51632916846187","405.728","414.728",NA,"10.005",NA,"0","0",NA
"122","R_2WU3os1c16bwZF8","standard","2","47","LP","3.49090909090909","416.742","420.733",NA,"5.918",NA,"0","0",NA
"123","R_2WU3os1c16bwZF8","standard","2","48","LP","0.661783713916415","423.66","424.336","424.846","1.186","0.51","3","3",NA
"124","R_2WU3os1c16bwZF8","standard","2","49","LP","30","425.854","NaN","425.903","0.049","NaN","0","3",NA
"125","R_2WU3os1c16bwZF8","standard","2","50","LP","0.264713485566566","426.909","NaN","426.995","0.086","NaN","0","3",NA
"126","R_2WU3os1c16bwZF8","standard","2","51","LP","5.5010771219302","428.01","433.519",NA,"6.515",NA,"0","3",NA
"127","R_2WU3os1c16bwZF8","standard","2","52","LP","5.5010771219302","435.527","441.03",NA,"6.522",NA,"0","3",NA
"128","R_2WU3os1c16bwZF8","standard","2","53","LP","8.51632916846187","443.053","451.581",NA,"9.539",NA,"0","3",NA
"129","R_2WU3os1c16bwZF8","standard","2","54","LP","3.49090909090909","453.597","NaN","454.002","0.405","NaN","0","3",NA
"130","R_2WU3os1c16bwZF8","standard","2","55","LP","2.15079707022835","455.006","457.174",NA,"3.186",NA,"0","3",NA
"131","R_2WU3os1c16bwZF8","standard","2","56","LP","30","459.198","489.205",NA,"31.021",NA,"0","3",NA
"132","R_2WU3os1c16bwZF8","standard","2","57","LP","13.0392072382594","491.221","504.261",NA,"14.049",NA,"0","3",NA
"133","R_2WU3os1c16bwZF8","standard","2","58","LP","30","506.278","536.288",NA,"31.016",NA,"0","3",NA
"134","R_2WU3os1c16bwZF8","standard","2","59","LP","0.264713485566566","538.304","538.589",NA,"1.302",NA,"0","3",NA
"135","R_2WU3os1c16bwZF8","standard","2","60","LP","1.25738905644119","540.618","541.889",NA,"2.287",NA,"0","3",NA
"136","R_2WU3os1c16bwZF8","standard","2","61","LP","1.25738905644119","543.915","545.187",NA,"2.29",NA,"0","3",NA
"137","R_2WU3os1c16bwZF8","standard","2","62","LP","2.15079707022835","547.217","549.387",NA,"3.184",NA,"0","3",NA
"138","R_2WU3os1c16bwZF8","standard","2","63","LP","0.661783713916415","551.406","552.07",NA,"1.688",NA,"0","3",NA
"139","R_2WU3os1c16bwZF8","standard","2","64","LP","19.8235243429556","554.104","573.934",NA,"20.84",NA,"0","3",NA
"140","R_2WU3os1c16bwZF8","standard","2","65","LP","3.49090909090909","575.95","579.445",NA,"4.505",NA,"0","3",NA
"141","R_2WU3os1c16bwZF8","standard","2","66","LP","2.15079707022835","581.462","583.613",NA,"3.163",NA,"0","3",NA
