"","subject_id","condition","n_block","n_trialIdx","f_timing_condition","n_scheduled_delay","n_trial_start_time","n_rewarded_time_fin","n_sell_time_fin","n_time_waited_fin","RT_fin","n_trial_earnings_fin","n_total_earnings_fin","keypress_times"
"1","R_2X4BjwjhMBWVOf1","standard","1","1","HP","4","0","4.008","4.354","4.354","0.346","3","3",""
"2","R_2X4BjwjhMBWVOf1","standard","1","2","HP","16","5.358","21.366","21.65","16.292","0.284","3","6",""
"3","R_2X4BjwjhMBWVOf1","standard","1","3","HP","6","22.654","28.662","29.09","6.436","0.428","3","9",""
"4","R_2X4BjwjhMBWVOf1","standard","1","4","HP","18","30.094","48.102","48.458","18.364","0.356","3","12",""
"5","R_2X4BjwjhMBWVOf1","standard","1","5","HP","8","49.462","57.47","57.826","8.364","0.356","3","15",""
"6","R_2X4BjwjhMBWVOf1","standard","1","6","HP","6","58.83","64.838","65.17","6.34","0.332","3","18",""
"7","R_2X4BjwjhMBWVOf1","standard","1","7","HP","2","66.174","68.182","68.53","2.356","0.348","3","21",""
"8","R_2X4BjwjhMBWVOf1","standard","1","8","HP","12","69.534","81.542","81.882","12.348","0.34","3","24",""
"9","R_2X4BjwjhMBWVOf1","standard","1","9","HP","2","82.886","84.894","85.275","2.389","0.381","3","27",""
"10","R_2X4BjwjhMBWVOf1","standard","1","10","HP","10","86.278","96.286","96.691","10.413","0.405","3","30",""
"11","R_2X4BjwjhMBWVOf1","standard","1","11","HP","2","97.694","99.702","100.234","2.54","0.532","3","33",""
"12","R_2X4BjwjhMBWVOf1","standard","1","12","HP","10","101.238","111.246","111.579","10.341","0.333","3","36",""
"13","R_2X4BjwjhMBWVOf1","standard","1","13","HP","4","112.582","116.59","116.922","4.34","0.332","3","39",""
"14","R_2X4BjwjhMBWVOf1","standard","1","14","HP","20","117.926","137.934","138.299","20.373","0.365","3","39","6637"
"15","R_2X4BjwjhMBWVOf1","standard","1","15","HP","10","139.302","149.306","149.691","10.389","0.385","3","42",""
"16","R_2X4BjwjhMBWVOf1","standard","1","16","HP","16","150.694","166.702","167.107","16.413","0.405","3","45",""
"17","R_2X4BjwjhMBWVOf1","standard","1","17","HP","4","168.11","172.118","172.483","4.373","0.365","3","48",""
"18","R_2X4BjwjhMBWVOf1","standard","1","18","HP","16","173.486","189.494","189.915","16.429","0.421","3","51",""
"19","R_2X4BjwjhMBWVOf1","standard","1","19","HP","2","190.918","192.926","193.419","2.501","0.493","3","54",""
"20","R_2X4BjwjhMBWVOf1","standard","1","20","HP","6","194.422","200.43","200.851","6.429","0.421","3","57",""
"21","R_2X4BjwjhMBWVOf1","standard","1","21","HP","2","201.854","203.862","204.211","2.357","0.349","3","60",""
"22","R_2X4BjwjhMBWVOf1","standard","1","22","HP","2","205.213","207.214","207.659","2.446","0.445","3","63",""
"23","R_2X4BjwjhMBWVOf1","standard","1","23","HP","6","208.662","214.67","215.035","6.373","0.365","3","66",""
"24","R_2X4BjwjhMBWVOf1","standard","1","24","HP","14","216.038","230.046","230.435","14.397","0.389","3","69",""
"25","R_2X4BjwjhMBWVOf1","standard","1","25","HP","10","231.438","241.446","241.788","10.35","0.342","3","72",""
"26","R_2X4BjwjhMBWVOf1","standard","1","26","HP","8","242.79","250.798","251.131","8.341","0.333","3","75",""
"27","R_2X4BjwjhMBWVOf1","standard","1","27","HP","6","252.134","258.142","258.563","6.429","0.421","3","78",""
"28","R_2X4BjwjhMBWVOf1","standard","1","28","HP","16","259.566","275.574","275.915","16.349","0.341","3","81",""
"29","R_2X4BjwjhMBWVOf1","standard","1","29","HP","8","276.918","284.926","285.267","8.349","0.341","3","84",""
"30","R_2X4BjwjhMBWVOf1","standard","1","30","HP","2","286.27","288.278","288.691","2.421","0.413","3","87",""
"31","R_2X4BjwjhMBWVOf1","standard","1","31","HP","18","289.694","307.702","308.092","18.398","0.39","3","90",""
"32","R_2X4BjwjhMBWVOf1","standard","1","32","HP","6","309.094","315.102","315.515","6.421","0.413","3","93",""
"33","R_2X4BjwjhMBWVOf1","standard","1","33","HP","20","316.518","336.526","336.876","20.358","0.35","3","96",""
"34","R_2X4BjwjhMBWVOf1","standard","1","34","HP","18","337.878","355.886","356.372","18.494","0.486","3","99",""
"35","R_2X4BjwjhMBWVOf1","standard","1","35","HP","16","357.374","373.382","373.749","16.375","0.367","3","102",""
"36","R_2X4BjwjhMBWVOf1","standard","1","36","HP","18","374.75","392.758","393.14","18.39","0.382","3","105",""
"37","R_2X4BjwjhMBWVOf1","standard","1","37","HP","2","394.142","396.15","396.524","2.382","0.374","3","108",""
"38","R_2X4BjwjhMBWVOf1","standard","1","38","HP","8","397.526","405.534","405.876","8.35","0.342","3","111",""
"39","R_2X4BjwjhMBWVOf1","standard","1","39","HP","4","406.878","410.886","411.3","4.422","0.414","3","114",""
"40","R_2X4BjwjhMBWVOf1","standard","1","40","HP","8","412.302","420.306","420.7","8.398","0.394","3","117",""
"41","R_2X4BjwjhMBWVOf1","standard","1","41","HP","20","421.702","441.703","442.036","20.334","0.333","3","120",""
"42","R_2X4BjwjhMBWVOf1","standard","1","42","HP","8","443.038","451.046","451.452","8.414","0.406","3","123",""
"43","R_2X4BjwjhMBWVOf1","standard","1","43","HP","16","452.454","468.462","468.852","16.398","0.39","3","126",""
"44","R_2X4BjwjhMBWVOf1","standard","1","44","HP","12","469.854","481.862","482.277","12.423","0.415","3","129",""
"45","R_2X4BjwjhMBWVOf1","standard","1","45","HP","12","483.278","495.286","495.669","12.391","0.383","3","132",""
"46","R_2X4BjwjhMBWVOf1","standard","1","46","HP","12","496.67","508.678","509.084","12.414","0.406","3","135",""
"47","R_2X4BjwjhMBWVOf1","standard","1","47","HP","4","510.086","514.094","514.477","4.391","0.383","3","138",""
"48","R_2X4BjwjhMBWVOf1","standard","1","48","HP","20","515.478","535.486","535.869","20.391","0.383","3","141",""
"49","R_2X4BjwjhMBWVOf1","standard","1","49","HP","14","536.87","550.878","551.261","14.391","0.383","3","144",""
"50","R_2X4BjwjhMBWVOf1","standard","1","50","HP","16","552.262","568.27","568.653","16.391","0.383","3","147",""
"51","R_2X4BjwjhMBWVOf1","standard","1","51","HP","6","569.654","575.662","576.029","6.375","0.367","3","150",""
"52","R_2X4BjwjhMBWVOf1","standard","1","52","HP","12","577.03","589.038","589.413","12.383","0.375","3","153",""
"53","R_2X4BjwjhMBWVOf1","standard","1","53","HP","8","590.414","598.422","598.893","8.479","0.471","3","156",""
"54","R_2X4BjwjhMBWVOf1","standard","1","54","HP","18","599.894","617.902","618.221","18.327","0.319","3","159",""
"55","R_2X4BjwjhMBWVOf1","standard","1","55","HP","16","619.222","635.23","635.597","16.375","0.367","3","162",""
"56","R_2X4BjwjhMBWVOf1","standard","1","56","HP","10","636.598","646.606","646.982","10.384","0.376","3","165",""
"57","R_2X4BjwjhMBWVOf1","standard","1","57","HP","16","647.982","663.99","664.358","16.376","0.368","3","168",""
"58","R_2X4BjwjhMBWVOf1","standard","1","58","HP","2","665.366","667.374","667.733","2.367","0.359","3","171",""
"59","R_2X4BjwjhMBWVOf1","standard","1","59","HP","18","668.734","686.742","687.117","18.383","0.375","3","174",""
"60","R_2X4BjwjhMBWVOf1","standard","1","60","HP","2","688.118","690.126","690.565","2.447","0.439","3","177",""
"61","R_2X4BjwjhMBWVOf1","standard","1","61","HP","2","691.574","693.582","693.926","2.352","0.344","3","180",""
"62","R_2X4BjwjhMBWVOf1","standard","1","62","HP","20","694.934","714.942","715.326","20.392","0.384","3","183",""
"63","R_2X4BjwjhMBWVOf1","standard","1","63","HP","6","716.334","722.342","722.75","6.416","0.408","3","186",""
"64","R_2X4BjwjhMBWVOf1","standard","1","64","HP","16","723.758","739.766","740.19","16.432","0.424","3","189",""
"65","R_2X4BjwjhMBWVOf1","standard","1","65","HP","10","741.198","751.206","751.622","10.424","0.416","3","192",""
"66","R_2X4BjwjhMBWVOf1","standard","1","66","HP","12","752.63","764.638","765.046","12.416","0.408","3","195",""
"67","R_2X4BjwjhMBWVOf1","standard","1","67","HP","6","766.054","772.062","772.446","6.392","0.384","3","198",""
"68","R_2X4BjwjhMBWVOf1","standard","1","68","HP","16","773.454","789.462","789.854","16.4","0.392","3","201",""
"69","R_2X4BjwjhMBWVOf1","standard","1","69","HP","4","790.862","794.87","795.263","4.401","0.393","3","204",""
"70","R_2X4BjwjhMBWVOf1","standard","1","70","HP","18","796.27","814.278","814.702","18.432","0.424","3","207",""
"71","R_2X4BjwjhMBWVOf1","standard","1","71","HP","14","815.702","829.703","830.086","14.384","0.383","3","210",""
"72","R_2X4BjwjhMBWVOf1","standard","1","72","HP","10","831.094","841.102","841.486","10.392","0.384","3","213",""
"73","R_2X4BjwjhMBWVOf1","standard","1","73","HP","10","842.494","852.502","852.958","10.464","0.456","3","216",""
"74","R_2X4BjwjhMBWVOf1","standard","1","74","HP","14","853.966","867.974","868.358","14.392","0.384","3","219",""
"75","R_2X4BjwjhMBWVOf1","standard","1","75","HP","6","869.366","875.374","875.734","6.368","0.36","3","222",""
"76","R_2X4BjwjhMBWVOf1","standard","1","76","HP","8","876.742","884.75","885.094","8.352","0.344","3","225",""
"77","R_2X4BjwjhMBWVOf1","standard","1","77","HP","6","886.102","892.106","892.534","6.432","0.428","3","228",""
"78","R_2X4BjwjhMBWVOf1","standard","2","1","LP","0.264713485566566","0","0.267","0.821","0.821","0.554","3","231",NA
"79","R_2X4BjwjhMBWVOf1","standard","2","2","LP","2.15079707022835","1.827","NaN","2.82","0.993","NaN","0","231",NA
"80","R_2X4BjwjhMBWVOf1","standard","2","3","LP","19.8235243429556","3.827","NaN","6.613","2.786","NaN","0","231",NA
"81","R_2X4BjwjhMBWVOf1","standard","2","4","LP","0.661783713916415","7.619","8.283","8.677","1.058","0.394","3","234",NA
"82","R_2X4BjwjhMBWVOf1","standard","2","5","LP","2.15079707022835","9.683","NaN","11.805","2.122","NaN","0","234",NA
"83","R_2X4BjwjhMBWVOf1","standard","2","6","LP","13.0392072382594","12.811","NaN","14.389","1.578","NaN","0","234",NA
"84","R_2X4BjwjhMBWVOf1","standard","2","7","LP","3.49090909090909","15.395","NaN","17.58","2.185","NaN","0","234",NA
"85","R_2X4BjwjhMBWVOf1","standard","2","8","LP","13.0392072382594","18.587","NaN","22.245","3.658","NaN","0","234",NA
"86","R_2X4BjwjhMBWVOf1","standard","2","9","LP","1.25738905644119","23.251","24.511","24.893","1.642","0.382","3","237",NA
"87","R_2X4BjwjhMBWVOf1","standard","2","10","LP","0.264713485566566","25.899","26.171","26.565","0.666","0.394","3","240",NA
"88","R_2X4BjwjhMBWVOf1","standard","2","11","LP","0.264713485566566","27.571","27.843","28.245","0.674","0.402","3","243",NA
"89","R_2X4BjwjhMBWVOf1","standard","2","12","LP","19.8235243429556","29.251","NaN","30.093","0.842","NaN","0","243",NA
"90","R_2X4BjwjhMBWVOf1","standard","2","13","LP","19.8235243429556","31.099","NaN","32.093","0.994","NaN","0","243",NA
"91","R_2X4BjwjhMBWVOf1","standard","2","14","LP","0.661783713916415","33.099","33.763","34.149","1.05","0.386","3","246",NA
"92","R_2X4BjwjhMBWVOf1","standard","2","15","LP","2.15079707022835","35.155","NaN","36.437","1.282","NaN","0","246",NA
"93","R_2X4BjwjhMBWVOf1","standard","2","16","LP","30","37.443","NaN","38.317","0.874","NaN","0","246",NA
"94","R_2X4BjwjhMBWVOf1","standard","2","17","LP","19.8235243429556","39.323","NaN","40.381","1.058","NaN","0","246",NA
"95","R_2X4BjwjhMBWVOf1","standard","2","18","LP","0.264713485566566","41.387","41.659","42.021","0.634","0.362","3","249",NA
"96","R_2X4BjwjhMBWVOf1","standard","2","19","LP","1.25738905644119","43.027","NaN","43.781","0.754","NaN","0","249",NA
"97","R_2X4BjwjhMBWVOf1","standard","2","20","LP","2.15079707022835","44.787","NaN","46.189","1.402","NaN","0","249",NA
"98","R_2X4BjwjhMBWVOf1","standard","2","21","LP","0.264713485566566","47.195","47.467","47.837","0.642","0.37","3","252",NA
"99","R_2X4BjwjhMBWVOf1","standard","2","22","LP","3.49090909090909","48.843","NaN","50.997","2.154","NaN","0","252",NA
"100","R_2X4BjwjhMBWVOf1","standard","2","23","LP","19.8235243429556","52.003","NaN","53.285","1.282","NaN","0","252",NA
"101","R_2X4BjwjhMBWVOf1","standard","2","24","LP","30","54.291","NaN","56.605","2.314","NaN","0","252",NA
"102","R_2X4BjwjhMBWVOf1","standard","2","25","LP","19.8235243429556","57.607","NaN","59.157","1.55","NaN","0","252",NA
"103","R_2X4BjwjhMBWVOf1","standard","2","26","LP","0.661783713916415","60.163","60.827","61.189","1.026","0.362","3","255",NA
"104","R_2X4BjwjhMBWVOf1","standard","2","27","LP","30","62.195","NaN","63.365","1.17","NaN","0","255",NA
"105","R_2X4BjwjhMBWVOf1","standard","2","28","LP","5.5010771219302","64.371","NaN","65.949","1.578","NaN","0","255",NA
"106","R_2X4BjwjhMBWVOf1","standard","2","29","LP","13.0392072382594","66.955","NaN","68.381","1.426","NaN","0","255",NA
"107","R_2X4BjwjhMBWVOf1","standard","2","30","LP","5.5010771219302","69.387","NaN","70.917","1.53","NaN","0","255",NA
"108","R_2X4BjwjhMBWVOf1","standard","2","31","LP","19.8235243429556","71.923","NaN","79.877","7.954","NaN","0","255",NA
"109","R_2X4BjwjhMBWVOf1","standard","2","32","LP","0.661783713916415","80.883","81.547","81.973","1.09","0.426","3","258",NA
"110","R_2X4BjwjhMBWVOf1","standard","2","33","LP","19.8235243429556","82.979","NaN","89.045","6.066","NaN","0","258",NA
"111","R_2X4BjwjhMBWVOf1","standard","2","34","LP","30","90.051","NaN","92.741","2.69","NaN","0","258",NA
"112","R_2X4BjwjhMBWVOf1","standard","2","35","LP","2.15079707022835","93.747","95.899","96.293","2.546","0.394","3","261",NA
"113","R_2X4BjwjhMBWVOf1","standard","2","36","LP","8.51632916846187","97.299","NaN","102.221","4.922","NaN","0","261",NA
"114","R_2X4BjwjhMBWVOf1","standard","2","37","LP","8.51632916846187","103.227","NaN","107.981","4.754","NaN","0","261",NA
"115","R_2X4BjwjhMBWVOf1","standard","2","38","LP","0.264713485566566","108.987","109.259","109.685","0.698","0.426","3","264",NA
"116","R_2X4BjwjhMBWVOf1","standard","2","39","LP","0.264713485566566","110.691","110.963","111.317","0.626","0.354","3","267",NA
"117","R_2X4BjwjhMBWVOf1","standard","2","40","LP","1.25738905644119","112.323","113.587","114.021","1.698","0.434","3","270",NA
"118","R_2X4BjwjhMBWVOf1","standard","2","41","LP","13.0392072382594","115.027","NaN","118.373","3.346","NaN","0","270",NA
"119","R_2X4BjwjhMBWVOf1","standard","2","42","LP","5.5010771219302","119.379","NaN","122.533","3.154","NaN","0","270",NA
"120","R_2X4BjwjhMBWVOf1","standard","2","43","LP","0.264713485566566","123.539","123.803","124.205","0.666","0.402","3","273",NA
"121","R_2X4BjwjhMBWVOf1","standard","2","44","LP","5.5010771219302","125.206","NaN","126.693","1.487","NaN","0","273",NA
"122","R_2X4BjwjhMBWVOf1","standard","2","45","LP","1.25738905644119","127.699","128.963","129.389","1.69","0.426","3","276",NA
"123","R_2X4BjwjhMBWVOf1","standard","2","46","LP","5.5010771219302","130.395","NaN","132.061","1.666","NaN","0","276",NA
"124","R_2X4BjwjhMBWVOf1","standard","2","47","LP","3.49090909090909","133.067","NaN","135.629","2.562","NaN","0","276",NA
"125","R_2X4BjwjhMBWVOf1","standard","2","48","LP","2.15079707022835","136.635","138.787","139.093","2.458","0.306","3","279",NA
"126","R_2X4BjwjhMBWVOf1","standard","2","49","LP","0.661783713916415","140.099","140.763","141.254","1.155","0.491","3","282",NA
"127","R_2X4BjwjhMBWVOf1","standard","2","50","LP","0.661783713916415","142.259","142.923","143.301","1.042","0.378","3","285",NA
"128","R_2X4BjwjhMBWVOf1","standard","2","51","LP","5.5010771219302","144.307","NaN","147.661","3.354","NaN","0","285",NA
"129","R_2X4BjwjhMBWVOf1","standard","2","52","LP","0.661783713916415","148.667","149.331","149.709","1.042","0.378","3","288",NA
"130","R_2X4BjwjhMBWVOf1","standard","2","53","LP","8.51632916846187","150.711","NaN","153.589","2.878","NaN","0","288",NA
"131","R_2X4BjwjhMBWVOf1","standard","2","54","LP","3.49090909090909","154.595","NaN","157.558","2.963","NaN","0","288",NA
"132","R_2X4BjwjhMBWVOf1","standard","2","55","LP","0.661783713916415","158.563","159.227","159.597","1.034","0.37","3","291",NA
"133","R_2X4BjwjhMBWVOf1","standard","2","56","LP","13.0392072382594","160.603","NaN","165.029","4.426","NaN","0","291",NA
"134","R_2X4BjwjhMBWVOf1","standard","2","57","LP","2.15079707022835","166.035","168.187","168.757","2.722","0.57","3","294",NA
"135","R_2X4BjwjhMBWVOf1","standard","2","58","LP","5.5010771219302","169.763","NaN","173.765","4.002","NaN","0","294",NA
"136","R_2X4BjwjhMBWVOf1","standard","2","59","LP","2.15079707022835","174.771","176.923","177.293","2.522","0.37","3","297",NA
"137","R_2X4BjwjhMBWVOf1","standard","2","60","LP","30","178.299","NaN","181.853","3.554","NaN","0","297",NA
"138","R_2X4BjwjhMBWVOf1","standard","2","61","LP","2.15079707022835","182.859","185.011","185.397","2.538","0.386","3","300",NA
"139","R_2X4BjwjhMBWVOf1","standard","2","62","LP","8.51632916846187","186.403","NaN","193.438","7.035","NaN","0","300",NA
"140","R_2X4BjwjhMBWVOf1","standard","2","63","LP","8.51632916846187","194.443","NaN","201.133","6.69","NaN","0","300",NA
"141","R_2X4BjwjhMBWVOf1","standard","2","64","LP","5.5010771219302","202.139","NaN","207.526","5.387","NaN","0","300",NA
"142","R_2X4BjwjhMBWVOf1","standard","2","65","LP","19.8235243429556","208.531","NaN","214.485","5.954","NaN","0","300",NA
"143","R_2X4BjwjhMBWVOf1","standard","2","66","LP","8.51632916846187","215.491","NaN","221.51","6.019","NaN","0","300",NA
"144","R_2X4BjwjhMBWVOf1","standard","2","67","LP","3.49090909090909","222.512","226.003","226.518","4.006","0.515","3","303",NA
"145","R_2X4BjwjhMBWVOf1","standard","2","68","LP","1.25738905644119","227.523","228.787","229.247","1.724","0.46","3","306",NA
"146","R_2X4BjwjhMBWVOf1","standard","2","69","LP","5.5010771219302","230.251","235.755","236.19","5.939","0.435","3","309",NA
"147","R_2X4BjwjhMBWVOf1","standard","2","70","LP","5.5010771219302","237.195","242.699","243.15","5.955","0.451","3","312",NA
"148","R_2X4BjwjhMBWVOf1","standard","2","71","LP","19.8235243429556","244.155","NaN","249.934","5.779","NaN","0","312",NA
"149","R_2X4BjwjhMBWVOf1","standard","2","72","LP","5.5010771219302","250.939","NaN","254.558","3.619","NaN","0","312",NA
"150","R_2X4BjwjhMBWVOf1","standard","2","73","LP","13.0392072382594","255.563","NaN","258.798","3.235","NaN","0","312",NA
"151","R_2X4BjwjhMBWVOf1","standard","2","74","LP","3.49090909090909","259.803","NaN","262.878","3.075","NaN","0","312",NA
"152","R_2X4BjwjhMBWVOf1","standard","2","75","LP","13.0392072382594","263.883","NaN","267.27","3.387","NaN","0","312",NA
"153","R_2X4BjwjhMBWVOf1","standard","2","76","LP","30","268.275","NaN","270.99","2.715","NaN","0","312",NA
"154","R_2X4BjwjhMBWVOf1","standard","2","77","LP","0.264713485566566","271.995","272.267","272.718","0.723","0.451","3","315",NA
"155","R_2X4BjwjhMBWVOf1","standard","2","78","LP","30","273.723","NaN","275.078","1.355","NaN","0","315",NA
"156","R_2X4BjwjhMBWVOf1","standard","2","79","LP","19.8235243429556","276.083","NaN","278.102","2.019","NaN","0","315",NA
"157","R_2X4BjwjhMBWVOf1","standard","2","80","LP","13.0392072382594","279.107","NaN","281.654","2.547","NaN","0","315",NA
"158","R_2X4BjwjhMBWVOf1","standard","2","81","LP","3.49090909090909","282.659","NaN","285.07","2.411","NaN","0","315",NA
"159","R_2X4BjwjhMBWVOf1","standard","2","82","LP","30","286.075","NaN","287.774","1.699","NaN","0","315",NA
"160","R_2X4BjwjhMBWVOf1","standard","2","83","LP","8.51632916846187","288.779","NaN","290.958","2.179","NaN","0","315",NA
"161","R_2X4BjwjhMBWVOf1","standard","2","84","LP","5.5010771219302","291.963","NaN","293.502","1.539","NaN","0","315",NA
"162","R_2X4BjwjhMBWVOf1","standard","2","85","LP","13.0392072382594","294.508","NaN","297.646","3.138","NaN","0","315",NA
"163","R_2X4BjwjhMBWVOf1","standard","2","86","LP","0.264713485566566","298.651","298.923","299.382","0.731","0.459","3","318",NA
"164","R_2X4BjwjhMBWVOf1","standard","2","87","LP","30","300.387","NaN","302.51","2.123","NaN","0","318",NA
"165","R_2X4BjwjhMBWVOf1","standard","2","88","LP","30","303.514","NaN","310.334","6.82","NaN","0","318",NA
"166","R_2X4BjwjhMBWVOf1","standard","2","89","LP","30","311.339","NaN","328.814","17.475","NaN","0","318",NA
"167","R_2X4BjwjhMBWVOf1","standard","2","90","LP","13.0392072382594","329.819","NaN","333.99","4.171","NaN","0","318",NA
"168","R_2X4BjwjhMBWVOf1","standard","2","91","LP","8.51632916846187","334.995","NaN","337.734","2.739","NaN","0","318",NA
"169","R_2X4BjwjhMBWVOf1","standard","2","92","LP","5.5010771219302","338.739","NaN","342.142","3.403","NaN","0","318",NA
"170","R_2X4BjwjhMBWVOf1","standard","2","93","LP","1.25738905644119","343.147","344.407","344.87","1.723","0.463","3","321",NA
"171","R_2X4BjwjhMBWVOf1","standard","2","94","LP","30","345.875","NaN","347.998","2.123","NaN","0","321",NA
"172","R_2X4BjwjhMBWVOf1","standard","2","95","LP","8.51632916846187","349.003","NaN","351.758","2.755","NaN","0","321",NA
"173","R_2X4BjwjhMBWVOf1","standard","2","96","LP","0.264713485566566","352.763","353.035","353.446","0.683","0.411","3","324",NA
"174","R_2X4BjwjhMBWVOf1","standard","2","97","LP","0.661783713916415","354.451","355.114","355.63","1.179","0.516","3","327",NA
"175","R_2X4BjwjhMBWVOf1","standard","2","98","LP","13.0392072382594","356.635","NaN","359.27","2.635","NaN","0","327",NA
"176","R_2X4BjwjhMBWVOf1","standard","2","99","LP","1.25738905644119","360.275","361.539","361.942","1.667","0.403","3","330",NA
"177","R_2X4BjwjhMBWVOf1","standard","2","100","LP","19.8235243429556","362.947","NaN","365.358","2.411","NaN","0","330",NA
"178","R_2X4BjwjhMBWVOf1","standard","2","101","LP","19.8235243429556","366.363","NaN","369.398","3.035","NaN","0","330",NA
"179","R_2X4BjwjhMBWVOf1","standard","2","102","LP","8.51632916846187","370.403","NaN","372.886","2.483","NaN","0","330",NA
"180","R_2X4BjwjhMBWVOf1","standard","2","103","LP","5.5010771219302","373.891","NaN","378.15","4.259","NaN","0","330",NA
"181","R_2X4BjwjhMBWVOf1","standard","2","104","LP","13.0392072382594","379.155","NaN","383.158","4.003","NaN","0","330",NA
"182","R_2X4BjwjhMBWVOf1","standard","2","105","LP","0.264713485566566","384.163","384.435","384.838","0.675","0.403","3","333",NA
"183","R_2X4BjwjhMBWVOf1","standard","2","106","LP","0.661783713916415","385.843","386.507","386.934","1.091","0.427","3","336",NA
"184","R_2X4BjwjhMBWVOf1","standard","2","107","LP","19.8235243429556","387.939","NaN","390.343","2.404","NaN","0","336",NA
"185","R_2X4BjwjhMBWVOf1","standard","2","108","LP","5.5010771219302","391.347","NaN","393.967","2.62","NaN","0","336",NA
"186","R_2X4BjwjhMBWVOf1","standard","2","109","LP","8.51632916846187","394.971","NaN","397.414","2.443","NaN","0","336",NA
"187","R_2X4BjwjhMBWVOf1","standard","2","110","LP","5.5010771219302","398.419","NaN","400.503","2.084","NaN","0","336",NA
"188","R_2X4BjwjhMBWVOf1","standard","2","111","LP","0.264713485566566","401.508","401.779","402.222","0.714","0.443","3","339",NA
"189","R_2X4BjwjhMBWVOf1","standard","2","112","LP","0.264713485566566","403.227","403.499","403.863","0.636","0.364","3","342",NA
"190","R_2X4BjwjhMBWVOf1","standard","2","113","LP","0.661783713916415","404.867","405.531","405.999","1.132","0.468","3","345",NA
"191","R_2X4BjwjhMBWVOf1","standard","2","114","LP","19.8235243429556","407.003","NaN","408.991","1.988","NaN","0","345",NA
"192","R_2X4BjwjhMBWVOf1","standard","2","115","LP","2.15079707022835","409.995","412.147","412.615","2.62","0.468","3","348",NA
"193","R_2X4BjwjhMBWVOf1","standard","2","116","LP","2.15079707022835","413.619","415.771","415.999","2.38","0.228","3","351",NA
"194","R_2X4BjwjhMBWVOf1","standard","2","117","LP","5.5010771219302","417.003","NaN","419.767","2.764","NaN","0","351",NA
"195","R_2X4BjwjhMBWVOf1","standard","2","118","LP","1.25738905644119","420.771","422.035","422.551","1.78","0.516","3","354",NA
"196","R_2X4BjwjhMBWVOf1","standard","2","119","LP","0.264713485566566","423.555","423.827","424.287","0.732","0.46","3","357",NA
"197","R_2X4BjwjhMBWVOf1","standard","2","120","LP","3.49090909090909","425.291","NaN","428.071","2.78","NaN","0","357",NA
"198","R_2X4BjwjhMBWVOf1","standard","2","121","LP","3.49090909090909","429.075","NaN","431.974","2.899","NaN","0","357",NA
"199","R_2X4BjwjhMBWVOf1","standard","2","122","LP","30","432.979","NaN","435.455","2.476","NaN","0","357",NA
"200","R_2X4BjwjhMBWVOf1","standard","2","123","LP","0.264713485566566","436.459","436.731","437.135","0.676","0.404","3","360",NA
"201","R_2X4BjwjhMBWVOf1","standard","2","124","LP","13.0392072382594","438.139","NaN","440.431","2.292","NaN","0","360",NA
"202","R_2X4BjwjhMBWVOf1","standard","2","125","LP","30","441.435","NaN","443.791","2.356","NaN","0","360",NA
"203","R_2X4BjwjhMBWVOf1","standard","2","126","LP","3.49090909090909","444.795","NaN","447.535","2.74","NaN","0","360",NA
"204","R_2X4BjwjhMBWVOf1","standard","2","127","LP","30","448.539","NaN","451.639","3.1","NaN","0","360",NA
"205","R_2X4BjwjhMBWVOf1","standard","2","128","LP","0.264713485566566","452.643","452.908","453.303","0.66","0.395","3","363",NA
"206","R_2X4BjwjhMBWVOf1","standard","2","129","LP","5.5010771219302","454.308","NaN","457.799","3.491","NaN","0","363",NA
"207","R_2X4BjwjhMBWVOf1","standard","2","130","LP","5.5010771219302","458.803","NaN","462.471","3.668","NaN","0","363",NA
"208","R_2X4BjwjhMBWVOf1","standard","2","131","LP","2.15079707022835","463.475","465.627","466.087","2.612","0.46","3","366",NA
"209","R_2X4BjwjhMBWVOf1","standard","2","132","LP","1.25738905644119","467.091","468.355","468.871","1.78","0.516","3","369",NA
"210","R_2X4BjwjhMBWVOf1","standard","2","133","LP","0.264713485566566","469.875","470.147","470.655","0.78","0.508","3","372",NA
"211","R_2X4BjwjhMBWVOf1","standard","2","134","LP","5.5010771219302","471.659","NaN","474.703","3.044","NaN","0","372",NA
"212","R_2X4BjwjhMBWVOf1","standard","2","135","LP","0.661783713916415","475.707","476.371","476.775","1.068","0.404","3","375",NA
"213","R_2X4BjwjhMBWVOf1","standard","2","136","LP","5.5010771219302","477.779","NaN","480.455","2.676","NaN","0","375",NA
"214","R_2X4BjwjhMBWVOf1","standard","2","137","LP","30","481.459","NaN","484.535","3.076","NaN","0","375",NA
"215","R_2X4BjwjhMBWVOf1","standard","2","138","LP","13.0392072382594","485.539","NaN","489.023","3.484","NaN","0","375",NA
"216","R_2X4BjwjhMBWVOf1","standard","2","139","LP","8.51632916846187","490.027","NaN","493.831","3.804","NaN","0","375",NA
"217","R_2X4BjwjhMBWVOf1","standard","2","140","LP","8.51632916846187","494.835","NaN","498.431","3.596","NaN","0","375",NA
"218","R_2X4BjwjhMBWVOf1","standard","2","141","LP","0.264713485566566","499.435","499.707","500.175","0.74","0.468","3","378",NA
"219","R_2X4BjwjhMBWVOf1","standard","2","142","LP","19.8235243429556","501.179","NaN","504.847","3.668","NaN","0","378",NA
"220","R_2X4BjwjhMBWVOf1","standard","2","143","LP","5.5010771219302","505.851","NaN","509.231","3.38","NaN","0","378",NA
"221","R_2X4BjwjhMBWVOf1","standard","2","144","LP","19.8235243429556","510.235","NaN","514.959","4.724","NaN","0","378",NA
"222","R_2X4BjwjhMBWVOf1","standard","2","145","LP","30","515.963","NaN","519.257","3.294","NaN","0","378",NA
"223","R_2X4BjwjhMBWVOf1","standard","2","146","LP","0.661783713916415","520.259","520.923","521.335","1.076","0.412","3","381",NA
"224","R_2X4BjwjhMBWVOf1","standard","2","147","LP","2.15079707022835","522.339","524.491","524.967","2.628","0.476","3","384",NA
"225","R_2X4BjwjhMBWVOf1","standard","2","148","LP","5.5010771219302","525.971","NaN","529.343","3.372","NaN","0","384",NA
"226","R_2X4BjwjhMBWVOf1","standard","2","149","LP","30","530.347","NaN","534.311","3.964","NaN","0","384",NA
"227","R_2X4BjwjhMBWVOf1","standard","2","150","LP","8.51632916846187","535.311","NaN","539.08","3.769","NaN","0","384",NA
"228","R_2X4BjwjhMBWVOf1","standard","2","151","LP","8.51632916846187","540.083","NaN","544.287","4.204","NaN","0","384",NA
"229","R_2X4BjwjhMBWVOf1","standard","2","152","LP","3.49090909090909","545.291","548.787","549.311","4.02","0.524","3","387",NA
"230","R_2X4BjwjhMBWVOf1","standard","2","153","LP","30","550.315","NaN","555.063","4.748","NaN","0","387",NA
"231","R_2X4BjwjhMBWVOf1","standard","2","154","LP","30","556.067","NaN","561.328","5.261","NaN","0","387",NA
"232","R_2X4BjwjhMBWVOf1","standard","2","155","LP","8.51632916846187","562.331","NaN","567.247","4.916","NaN","0","387",NA
"233","R_2X4BjwjhMBWVOf1","standard","2","156","LP","8.51632916846187","568.251","NaN","572.2","3.949","NaN","0","387",NA
"234","R_2X4BjwjhMBWVOf1","standard","2","157","LP","1.25738905644119","573.203","574.467","574.895","1.692","0.428","3","390",NA
"235","R_2X4BjwjhMBWVOf1","standard","2","158","LP","5.5010771219302","575.899","NaN","580.479","4.58","NaN","0","390",NA
"236","R_2X4BjwjhMBWVOf1","standard","2","159","LP","0.264713485566566","581.483","581.755","582.183","0.7","0.428","3","393",NA
"237","R_2X4BjwjhMBWVOf1","standard","2","160","LP","8.51632916846187","583.187","NaN","587.088","3.901","NaN","0","393",NA
"238","R_2X4BjwjhMBWVOf1","standard","2","161","LP","2.15079707022835","588.091","590.243","590.711","2.62","0.468","3","396",NA
"239","R_2X4BjwjhMBWVOf1","standard","2","162","LP","13.0392072382594","591.715","NaN","595.223","3.508","NaN","0","396",NA
"240","R_2X4BjwjhMBWVOf1","standard","2","163","LP","0.264713485566566","596.227","596.499","596.919","0.692","0.42","3","399",NA
"241","R_2X4BjwjhMBWVOf1","standard","2","164","LP","0.264713485566566","597.923","598.195","598.615","0.692","0.42","3","402",NA
