"","subject_id","condition","n_block","n_trialIdx","f_timing_condition","n_scheduled_delay","n_trial_start_time","n_rewarded_time_fin","n_sell_time_fin","n_time_waited_fin","RT_fin","n_trial_earnings_fin","n_total_earnings_fin","keypress_times"
"1","R_2xQQEtay5DxyzIY","standard","1","1","HP","16","0.005","16.01","16.895","16.89","0.885","3","3",""
"2","R_2xQQEtay5DxyzIY","standard","1","2","HP","12","17.904","29.917","30.606","12.702","0.689","3","6",""
"3","R_2xQQEtay5DxyzIY","standard","1","3","HP","4","31.609","35.614","36.438","4.829","0.824","3","9",""
"4","R_2xQQEtay5DxyzIY","standard","1","4","HP","6","37.444","43.448","44.089","6.645","0.641","3","12",""
"5","R_2xQQEtay5DxyzIY","standard","1","5","HP","20","45.108","65.127","65.767","20.659","0.64","3","15",""
"6","R_2xQQEtay5DxyzIY","standard","1","6","HP","12","66.775","78.784","79.406","12.631","0.622","3","18",""
"7","R_2xQQEtay5DxyzIY","standard","1","7","HP","6","80.436","86.439","87.081","6.645","0.642","3","21",""
"8","R_2xQQEtay5DxyzIY","standard","1","8","HP","2","88.135","90.143","90.991","2.856","0.848","3","24",""
"9","R_2xQQEtay5DxyzIY","standard","1","9","HP","18","92","110.007","110.58","18.58","0.573","3","27",""
"10","R_2xQQEtay5DxyzIY","standard","1","10","HP","8","111.584","119.592","120.257","8.673","0.665","3","30",""
"11","R_2xQQEtay5DxyzIY","standard","1","11","HP","20","121.264","141.272","142.064","20.8","0.792","3","33",""
"12","R_2xQQEtay5DxyzIY","standard","1","12","HP","16","143.072","159.079","159.754","16.682","0.675","3","36",""
"13","R_2xQQEtay5DxyzIY","standard","1","13","HP","8","160.779","168.784","169.568","8.789","0.784","3","39",""
"14","R_2xQQEtay5DxyzIY","standard","1","14","HP","18","170.583","188.591","189.438","18.855","0.847","3","42",""
"15","R_2xQQEtay5DxyzIY","standard","1","15","HP","14","190.449","204.455","205.152","14.703","0.697","3","45",""
"16","R_2xQQEtay5DxyzIY","standard","1","16","HP","2","206.159","208.168","NA","3.018","NA","0","45",""
"17","R_2xQQEtay5DxyzIY","standard","1","17","HP","18","210.184","228.191","228.818","18.634","0.627","3","48",""
"18","R_2xQQEtay5DxyzIY","standard","1","18","HP","8","229.824","237.828","238.535","8.711","0.707","3","51",""
"19","R_2xQQEtay5DxyzIY","standard","1","19","HP","20","239.545","259.552","260.361","20.816","0.809","3","54",""
"20","R_2xQQEtay5DxyzIY","standard","1","20","HP","14","261.478","275.488","276.192","14.714","0.704","3","57",""
"21","R_2xQQEtay5DxyzIY","standard","1","21","HP","14","277.237","291.353","292.075","14.838","0.722","3","60",""
"22","R_2xQQEtay5DxyzIY","standard","1","22","HP","8","293.08","301.087","301.692","8.612","0.605","3","63",""
"23","R_2xQQEtay5DxyzIY","standard","1","23","HP","6","302.743","308.752","309.581","6.838","0.829","3","66",""
"24","R_2xQQEtay5DxyzIY","standard","1","24","HP","10","310.583","320.591","321.297","10.714","0.706","3","69",""
"25","R_2xQQEtay5DxyzIY","standard","1","25","HP","8","322.304","330.317","331.145","8.841","0.828","3","72",""
"26","R_2xQQEtay5DxyzIY","standard","1","26","HP","8","332.152","340.16","340.931","8.779","0.771","3","75",""
"27","R_2xQQEtay5DxyzIY","standard","1","27","HP","18","341.981","360.072","360.576","18.595","0.504","3","78",""
"28","R_2xQQEtay5DxyzIY","standard","1","28","HP","14","361.584","375.592","376.294","14.71","0.702","3","81",""
"29","R_2xQQEtay5DxyzIY","standard","1","29","HP","12","377.305","389.323","389.978","12.673","0.655","3","84",""
"30","R_2xQQEtay5DxyzIY","standard","1","30","HP","18","390.985","408.992","409.453","18.468","0.461","3","87",""
"31","R_2xQQEtay5DxyzIY","standard","1","31","HP","4","410.456","414.464","415.158","4.702","0.694","3","90",""
"32","R_2xQQEtay5DxyzIY","standard","1","32","HP","8","416.16","424.167","425.131","8.971","0.964","3","93",""
"33","R_2xQQEtay5DxyzIY","standard","1","33","HP","12","426.137","438.143","438.854","12.717","0.711","3","96",""
"34","R_2xQQEtay5DxyzIY","standard","1","34","HP","12","439.864","451.871","452.56","12.696","0.689","3","99",""
"35","R_2xQQEtay5DxyzIY","standard","1","35","HP","8","453.568","461.575","NA","9.017","NA","0","99",""
"36","R_2xQQEtay5DxyzIY","standard","1","36","HP","2","463.593","465.612","466.342","2.749","0.73","3","102",""
"37","R_2xQQEtay5DxyzIY","standard","1","37","HP","14","467.353","481.359","481.81","14.457","0.451","3","105",""
"38","R_2xQQEtay5DxyzIY","standard","1","38","HP","2","482.819","484.823","485.326","2.507","0.503","3","108",""
"39","R_2xQQEtay5DxyzIY","standard","1","39","HP","10","486.329","496.334","496.775","10.446","0.441","3","111",""
"40","R_2xQQEtay5DxyzIY","standard","1","40","HP","8","497.785","505.804","506.22","8.435","0.416","3","114",""
"41","R_2xQQEtay5DxyzIY","standard","1","41","HP","14","507.223","521.232","521.728","14.505","0.496","3","117",""
"42","R_2xQQEtay5DxyzIY","standard","1","42","HP","20","522.733","542.736","543.173","20.44","0.437","3","120",""
"43","R_2xQQEtay5DxyzIY","standard","1","43","HP","12","544.176","556.184","556.622","12.446","0.438","3","123",""
"44","R_2xQQEtay5DxyzIY","standard","1","44","HP","2","557.632","559.635","560.15","2.518","0.515","3","126",""
"45","R_2xQQEtay5DxyzIY","standard","1","45","HP","20","561.151","581.161","581.525","20.374","0.364","3","129",""
"46","R_2xQQEtay5DxyzIY","standard","1","46","HP","2","582.53","584.593","585.192","2.662","0.599","3","132",""
"47","R_2xQQEtay5DxyzIY","standard","1","47","HP","6","586.2","592.208","592.787","6.587","0.579","3","135",""
"48","R_2xQQEtay5DxyzIY","standard","1","48","HP","12","593.793","605.8","606.162","12.369","0.362","3","138",""
"49","R_2xQQEtay5DxyzIY","standard","1","49","HP","4","607.216","611.322","611.781","4.565","0.459","3","141",""
"50","R_2xQQEtay5DxyzIY","standard","1","50","HP","6","612.784","618.797","619.291","6.507","0.494","3","144",""
"51","R_2xQQEtay5DxyzIY","standard","1","51","HP","10","620.296","630.304","630.714","10.418","0.41","3","147",""
"52","R_2xQQEtay5DxyzIY","standard","1","52","HP","10","631.723","641.727","642.094","10.371","0.367","3","150",""
"53","R_2xQQEtay5DxyzIY","standard","1","53","HP","6","643.105","649.118","649.536","6.431","0.418","3","153",""
"54","R_2xQQEtay5DxyzIY","standard","1","54","HP","18","650.543","668.565","669.021","18.478","0.456","3","156",""
"55","R_2xQQEtay5DxyzIY","standard","1","55","HP","2","670.026","672.033","672.691","2.665","0.658","3","159",""
"56","R_2xQQEtay5DxyzIY","standard","1","56","HP","12","673.696","685.704","686.155","12.459","0.451","3","162",""
"57","R_2xQQEtay5DxyzIY","standard","1","57","HP","18","687.161","705.167","705.645","18.484","0.478","3","165",""
"58","R_2xQQEtay5DxyzIY","standard","1","58","HP","6","706.649","712.655","713.132","6.483","0.477","3","168",""
"59","R_2xQQEtay5DxyzIY","standard","1","59","HP","14","714.136","728.141","728.581","14.445","0.44","3","171",""
"60","R_2xQQEtay5DxyzIY","standard","1","60","HP","8","729.614","737.621","738.04","8.426","0.419","3","174",""
"61","R_2xQQEtay5DxyzIY","standard","1","61","HP","20","739.047","759.055","759.459","20.412","0.404","3","177",""
"62","R_2xQQEtay5DxyzIY","standard","1","62","HP","16","760.463","776.471","776.94","16.477","0.469","3","180",""
"63","R_2xQQEtay5DxyzIY","standard","1","63","HP","20","777.944","797.951","798.4","20.456","0.449","3","183",""
"64","R_2xQQEtay5DxyzIY","standard","1","64","HP","2","799.409","801.415","801.929","2.52","0.514","3","186",""
"65","R_2xQQEtay5DxyzIY","standard","1","65","HP","10","802.937","812.943","813.401","10.464","0.458","3","189",""
"66","R_2xQQEtay5DxyzIY","standard","1","66","HP","18","814.407","832.413","832.869","18.462","0.456","3","192",""
"67","R_2xQQEtay5DxyzIY","standard","1","67","HP","12","833.872","845.879","846.302","12.43","0.423","3","195",""
"68","R_2xQQEtay5DxyzIY","standard","1","68","HP","18","847.323","865.327","865.843","18.52","0.516","3","198",""
"69","R_2xQQEtay5DxyzIY","standard","1","69","HP","12","866.856","878.863","879.446","12.59","0.583","3","201",""
"70","R_2xQQEtay5DxyzIY","standard","1","70","HP","6","880.455","886.463","886.961","6.506","0.498","3","204",""
"71","R_2xQQEtay5DxyzIY","standard","1","71","HP","2","887.969","889.975","890.484","2.515","0.509","3","207",""
"72","R_2xQQEtay5DxyzIY","standard","2","1","LP","19.8235243429556","0.001","NaN","9.279","9.278","NaN","0","207",NA
"73","R_2xQQEtay5DxyzIY","standard","2","2","LP","0.264713485566566","10.285","10.557","11.162","0.877","0.605","3","210",NA
"74","R_2xQQEtay5DxyzIY","standard","2","3","LP","2.15079707022835","12.166","14.324","14.736","2.57","0.412","3","213",NA
"75","R_2xQQEtay5DxyzIY","standard","2","4","LP","0.661783713916415","15.74","16.404","17.262","1.522","0.858","3","216",NA
"76","R_2xQQEtay5DxyzIY","standard","2","5","LP","13.0392072382594","18.269","NaN","23.202","4.933","NaN","0","216",NA
"77","R_2xQQEtay5DxyzIY","standard","2","6","LP","30","24.206","54.208","54.681","30.475","0.473","3","219",NA
"78","R_2xQQEtay5DxyzIY","standard","2","7","LP","2.15079707022835","55.685","57.844","58.257","2.572","0.413","3","222",NA
"79","R_2xQQEtay5DxyzIY","standard","2","8","LP","8.51632916846187","59.26","67.821","68.225","8.965","0.404","3","225",NA
"80","R_2xQQEtay5DxyzIY","standard","2","9","LP","2.15079707022835","69.228","71.391","72.141","2.913","0.75","3","228",NA
"81","R_2xQQEtay5DxyzIY","standard","2","10","LP","8.51632916846187","73.148","81.682","82.104","8.956","0.422","3","231",NA
"82","R_2xQQEtay5DxyzIY","standard","2","11","LP","0.264713485566566","83.113","83.381","84.092","0.979","0.711","3","234",NA
"83","R_2xQQEtay5DxyzIY","standard","2","12","LP","3.49090909090909","85.132","88.628","89.115","3.983","0.487","3","237",NA
"84","R_2xQQEtay5DxyzIY","standard","2","13","LP","13.0392072382594","90.118","NaN","102.451","12.333","NaN","0","237",NA
"85","R_2xQQEtay5DxyzIY","standard","2","14","LP","19.8235243429556","103.46","NaN","115.715","12.255","NaN","0","237",NA
"86","R_2xQQEtay5DxyzIY","standard","2","15","LP","1.25738905644119","116.722","117.981","118.397","1.675","0.416","3","240",NA
"87","R_2xQQEtay5DxyzIY","standard","2","16","LP","8.51632916846187","119.405","127.981","128.549","9.144","0.568","3","243",NA
"88","R_2xQQEtay5DxyzIY","standard","2","17","LP","30","129.556","NaN","143.724","14.168","NaN","0","243",NA
"89","R_2xQQEtay5DxyzIY","standard","2","18","LP","30","144.732","NaN","159.986","15.254","NaN","0","243",NA
"90","R_2xQQEtay5DxyzIY","standard","2","19","LP","5.5010771219302","160.993","166.501","166.936","5.943","0.435","3","246",NA
"91","R_2xQQEtay5DxyzIY","standard","2","20","LP","8.51632916846187","167.941","176.46","176.922","8.981","0.462","3","249",NA
"92","R_2xQQEtay5DxyzIY","standard","2","21","LP","0.661783713916415","177.925","178.588","179.216","1.291","0.628","3","252",NA
"93","R_2xQQEtay5DxyzIY","standard","2","22","LP","5.5010771219302","180.219","185.749","186.191","5.972","0.442","3","255",NA
"94","R_2xQQEtay5DxyzIY","standard","2","23","LP","30","187.199","NaN","200.284","13.085","NaN","0","255",NA
"95","R_2xQQEtay5DxyzIY","standard","2","24","LP","1.25738905644119","201.292","202.556","202.978","1.686","0.422","3","258",NA
"96","R_2xQQEtay5DxyzIY","standard","2","25","LP","0.661783713916415","203.98","204.644","205.057","1.077","0.413","3","261",NA
"97","R_2xQQEtay5DxyzIY","standard","2","26","LP","5.5010771219302","206.086","211.596","212.05","5.964","0.454","3","264",NA
"98","R_2xQQEtay5DxyzIY","standard","2","27","LP","13.0392072382594","213.06","226.118","226.581","13.521","0.463","3","267",NA
"99","R_2xQQEtay5DxyzIY","standard","2","28","LP","8.51632916846187","227.594","236.114","236.568","8.974","0.454","3","270",NA
"100","R_2xQQEtay5DxyzIY","standard","2","29","LP","8.51632916846187","237.582","246.119","246.586","9.004","0.467","3","273",NA
"101","R_2xQQEtay5DxyzIY","standard","2","30","LP","2.15079707022835","247.596","249.749","250.324","2.728","0.575","3","276",NA
"102","R_2xQQEtay5DxyzIY","standard","2","31","LP","0.264713485566566","251.364","251.634","252.126","0.762","0.492","3","279",NA
"103","R_2xQQEtay5DxyzIY","standard","2","32","LP","0.264713485566566","253.137","253.405","253.855","0.718","0.45","3","282",NA
"104","R_2xQQEtay5DxyzIY","standard","2","33","LP","5.5010771219302","254.861","260.374","260.793","5.932","0.419","3","285",NA
"105","R_2xQQEtay5DxyzIY","standard","2","34","LP","8.51632916846187","261.809","270.333","270.772","8.963","0.439","3","288",NA
"106","R_2xQQEtay5DxyzIY","standard","2","35","LP","19.8235243429556","271.829","NaN","289.027","17.198","NaN","0","288",NA
"107","R_2xQQEtay5DxyzIY","standard","2","36","LP","8.51632916846187","290.042","298.564","299.055","9.013","0.491","3","291",NA
"108","R_2xQQEtay5DxyzIY","standard","2","37","LP","1.25738905644119","300.061","301.324","301.683","1.622","0.359","3","294",NA
"109","R_2xQQEtay5DxyzIY","standard","2","38","LP","8.51632916846187","302.693","311.215","311.855","9.162","0.64","3","297",NA
"110","R_2xQQEtay5DxyzIY","standard","2","39","LP","8.51632916846187","312.864","321.388","321.839","8.975","0.451","3","300",NA
"111","R_2xQQEtay5DxyzIY","standard","2","40","LP","2.15079707022835","322.845","325.005","325.468","2.623","0.463","3","303",NA
"112","R_2xQQEtay5DxyzIY","standard","2","41","LP","3.49090909090909","326.478","329.973","330.367","3.889","0.394","3","306",NA
"113","R_2xQQEtay5DxyzIY","standard","2","42","LP","5.5010771219302","331.372","336.89","337.35","5.978","0.46","3","309",NA
"114","R_2xQQEtay5DxyzIY","standard","2","43","LP","2.15079707022835","338.356","340.687","341.13","2.774","0.443","3","312",NA
"115","R_2xQQEtay5DxyzIY","standard","2","44","LP","19.8235243429556","342.132","NaN","356.556","14.424","NaN","0","312",NA
"116","R_2xQQEtay5DxyzIY","standard","2","45","LP","3.49090909090909","357.565","361.061","361.521","3.956","0.46","3","315",NA
"117","R_2xQQEtay5DxyzIY","standard","2","46","LP","3.49090909090909","362.525","366.029","366.473","3.948","0.444","3","318",NA
"118","R_2xQQEtay5DxyzIY","standard","2","47","LP","1.25738905644119","367.477","368.74","369.179","1.702","0.439","3","321",NA
"119","R_2xQQEtay5DxyzIY","standard","2","48","LP","30","370.188","NaN","383.314","13.126","NaN","0","321",NA
"120","R_2xQQEtay5DxyzIY","standard","2","49","LP","1.25738905644119","384.318","385.583","385.998","1.68","0.415","3","324",NA
"121","R_2xQQEtay5DxyzIY","standard","2","50","LP","30","387.005","NaN","400.218","13.213","NaN","0","324",NA
"122","R_2xQQEtay5DxyzIY","standard","2","51","LP","2.15079707022835","401.221","403.373","403.802","2.581","0.429","3","327",NA
"123","R_2xQQEtay5DxyzIY","standard","2","52","LP","19.8235243429556","404.816","NaN","416.393","11.577","NaN","0","327",NA
"124","R_2xQQEtay5DxyzIY","standard","2","53","LP","30","417.467","NaN","428.457","10.99","NaN","0","327",NA
"125","R_2xQQEtay5DxyzIY","standard","2","54","LP","0.264713485566566","429.461","429.736","430.183","0.722","0.447","3","330",NA
"126","R_2xQQEtay5DxyzIY","standard","2","55","LP","1.25738905644119","431.189","432.453","432.966","1.777","0.513","3","333",NA
"127","R_2xQQEtay5DxyzIY","standard","2","56","LP","0.264713485566566","433.994","434.264","434.829","0.835","0.565","3","336",NA
"128","R_2xQQEtay5DxyzIY","standard","2","57","LP","3.49090909090909","435.837","439.332","439.874","4.037","0.542","3","339",NA
"129","R_2xQQEtay5DxyzIY","standard","2","58","LP","3.49090909090909","440.877","444.385","444.846","3.969","0.461","3","342",NA
"130","R_2xQQEtay5DxyzIY","standard","2","59","LP","8.51632916846187","445.853","NaN","454.195","8.342","NaN","0","342",NA
"131","R_2xQQEtay5DxyzIY","standard","2","60","LP","5.5010771219302","455.205","460.73","461.186","5.981","0.456","3","345",NA
"132","R_2xQQEtay5DxyzIY","standard","2","61","LP","5.5010771219302","462.189","467.693","468.126","5.937","0.433","3","348",NA
"133","R_2xQQEtay5DxyzIY","standard","2","62","LP","0.661783713916415","469.133","469.797","470.251","1.118","0.454","3","351",NA
"134","R_2xQQEtay5DxyzIY","standard","2","63","LP","3.49090909090909","471.253","474.754","475.216","3.963","0.462","3","354",NA
"135","R_2xQQEtay5DxyzIY","standard","2","64","LP","30","476.221","NaN","486.867","10.646","NaN","0","354",NA
"136","R_2xQQEtay5DxyzIY","standard","2","65","LP","3.49090909090909","487.877","491.384","491.835","3.958","0.451","3","357",NA
"137","R_2xQQEtay5DxyzIY","standard","2","66","LP","3.49090909090909","492.845","496.343","496.728","3.883","0.385","3","360",NA
"138","R_2xQQEtay5DxyzIY","standard","2","67","LP","3.49090909090909","497.748","501.245","501.652","3.904","0.407","3","363",NA
"139","R_2xQQEtay5DxyzIY","standard","2","68","LP","13.0392072382594","502.664","NaN","511.989","9.325","NaN","0","363",NA
"140","R_2xQQEtay5DxyzIY","standard","2","69","LP","3.49090909090909","513.047","516.541","516.987","3.94","0.446","3","366",NA
"141","R_2xQQEtay5DxyzIY","standard","2","70","LP","2.15079707022835","518.005","520.166","520.611","2.606","0.445","3","369",NA
"142","R_2xQQEtay5DxyzIY","standard","2","71","LP","8.51632916846187","521.618","530.138","530.62","9.002","0.482","3","372",NA
"143","R_2xQQEtay5DxyzIY","standard","2","72","LP","2.15079707022835","531.629","533.789","534.154","2.525","0.365","3","375",NA
"144","R_2xQQEtay5DxyzIY","standard","2","73","LP","3.49090909090909","535.157","538.653","539.084","3.927","0.431","3","378",NA
"145","R_2xQQEtay5DxyzIY","standard","2","74","LP","13.0392072382594","540.093","NaN","549.698","9.605","NaN","0","378",NA
"146","R_2xQQEtay5DxyzIY","standard","2","75","LP","2.15079707022835","550.71","552.87","553.361","2.651","0.491","3","381",NA
"147","R_2xQQEtay5DxyzIY","standard","2","76","LP","3.49090909090909","554.366","557.861","558.307","3.941","0.446","3","384",NA
"148","R_2xQQEtay5DxyzIY","standard","2","77","LP","2.15079707022835","559.32","561.477","561.922","2.602","0.445","3","387",NA
"149","R_2xQQEtay5DxyzIY","standard","2","78","LP","3.49090909090909","562.925","566.42","566.833","3.908","0.413","3","390",NA
"150","R_2xQQEtay5DxyzIY","standard","2","79","LP","13.0392072382594","567.837","NaN","577.016","9.179","NaN","0","390",NA
"151","R_2xQQEtay5DxyzIY","standard","2","80","LP","2.15079707022835","578.02","580.173","580.618","2.598","0.445","3","393",NA
"152","R_2xQQEtay5DxyzIY","standard","2","81","LP","2.15079707022835","581.621","583.772","584.144","2.523","0.372","3","396",NA
"153","R_2xQQEtay5DxyzIY","standard","2","82","LP","13.0392072382594","585.148","NaN","593.779","8.631","NaN","0","396",NA
