"","subject_id","condition","n_block","n_trialIdx","f_timing_condition","n_scheduled_delay","n_trial_start_time","n_rewarded_time_fin","n_sell_time_fin","n_time_waited_fin","RT_fin","n_trial_earnings_fin","n_total_earnings_fin","keypress_times"
"1","R_2YXOR3vkRUL7HFc","standard","1","1","LP","30","0.001","30.005","30.249","30.248","0.244","3","3",""
"2","R_2YXOR3vkRUL7HFc","standard","1","2","LP","8.51632916846187","31.252","39.78","40.009","8.757","0.229","3","6",""
"3","R_2YXOR3vkRUL7HFc","standard","1","3","LP","0.264713485566566","41.009","41.285","41.625","0.616","0.34","3","9",""
"4","R_2YXOR3vkRUL7HFc","standard","1","4","LP","2.15079707022835","42.626","44.779","45.025","2.399","0.246","3","12",""
"5","R_2YXOR3vkRUL7HFc","standard","1","5","LP","13.0392072382594","46.026","59.068","59.29","13.264","0.222","3","15",""
"6","R_2YXOR3vkRUL7HFc","standard","1","6","LP","2.15079707022835","60.292","62.444","62.722","2.43","0.278","3","18",""
"7","R_2YXOR3vkRUL7HFc","standard","1","7","LP","5.5010771219302","63.724","69.227","69.467","5.743","0.24","3","21",""
"8","R_2YXOR3vkRUL7HFc","standard","1","8","LP","19.8235243429556","70.476","90.308","90.548","20.072","0.24","3","24",""
"9","R_2YXOR3vkRUL7HFc","standard","1","9","LP","2.15079707022835","91.556","93.712","93.956","2.4","0.244","3","27",""
"10","R_2YXOR3vkRUL7HFc","standard","1","10","LP","19.8235243429556","94.97","114.796","115.021","20.051","0.225","3","30",""
"11","R_2YXOR3vkRUL7HFc","standard","1","11","LP","2.15079707022835","116.028","118.18","118.453","2.425","0.273","3","33",""
"12","R_2YXOR3vkRUL7HFc","standard","1","12","LP","0.264713485566566","119.46","119.728","120.269","0.809","0.541","3","36",""
"13","R_2YXOR3vkRUL7HFc","standard","1","13","LP","5.5010771219302","121.276","126.78","127.037","5.761","0.257","3","39",""
"14","R_2YXOR3vkRUL7HFc","standard","1","14","LP","30","128.044","158.052","158.279","30.235","0.227","3","42",""
"15","R_2YXOR3vkRUL7HFc","standard","1","15","LP","8.51632916846187","159.283","167.803","168.127","8.844","0.324","3","45",""
"16","R_2YXOR3vkRUL7HFc","standard","1","16","LP","0.661783713916415","169.129","169.795","170.263","1.134","0.468","3","48",""
"17","R_2YXOR3vkRUL7HFc","standard","1","17","LP","0.264713485566566","171.267","171.539","171.743","0.476","0.204","3","51",""
"18","R_2YXOR3vkRUL7HFc","standard","1","18","LP","13.0392072382594","172.745","185.787","186.032","13.287","0.245","3","54",""
"19","R_2YXOR3vkRUL7HFc","standard","1","19","LP","8.51632916846187","187.035","195.555","195.824","8.789","0.269","3","57",""
"20","R_2YXOR3vkRUL7HFc","standard","1","20","LP","0.661783713916415","196.827","197.492","197.8","0.973","0.308","3","60",""
"21","R_2YXOR3vkRUL7HFc","standard","1","21","LP","3.49090909090909","198.803","202.3","202.577","3.774","0.277","3","63",""
"22","R_2YXOR3vkRUL7HFc","standard","1","22","LP","19.8235243429556","203.58","223.404","223.698","20.118","0.294","3","66",""
"23","R_2YXOR3vkRUL7HFc","standard","1","23","LP","5.5010771219302","224.7","230.204","230.482","5.782","0.278","3","66","294"
"24","R_2YXOR3vkRUL7HFc","standard","1","24","LP","3.49090909090909","231.484","234.979","235.235","3.751","0.256","3","69",""
"25","R_2YXOR3vkRUL7HFc","standard","1","25","LP","2.15079707022835","236.244","238.396","238.627","2.383","0.231","3","72",""
"26","R_2YXOR3vkRUL7HFc","standard","1","26","LP","8.51632916846187","239.628","248.148","248.411","8.783","0.263","3","75",""
"27","R_2YXOR3vkRUL7HFc","standard","1","27","LP","2.15079707022835","249.415","251.575","251.827","2.412","0.252","3","78",""
"28","R_2YXOR3vkRUL7HFc","standard","1","28","LP","8.51632916846187","252.831","261.355","261.652","8.821","0.297","3","81",""
"29","R_2YXOR3vkRUL7HFc","standard","1","29","LP","1.25738905644119","262.66","263.924","264.204","1.544","0.28","3","84",""
"30","R_2YXOR3vkRUL7HFc","standard","1","30","LP","3.49090909090909","265.209","268.718","268.996","3.787","0.278","3","87",""
"31","R_2YXOR3vkRUL7HFc","standard","1","31","LP","5.5010771219302","270.004","275.508","275.765","5.761","0.257","3","90",""
"32","R_2YXOR3vkRUL7HFc","standard","1","32","LP","1.25738905644119","276.772","278.032","278.293","1.521","0.261","3","93",""
"33","R_2YXOR3vkRUL7HFc","standard","1","33","LP","2.15079707022835","279.3","281.451","281.741","2.441","0.29","3","96",""
"34","R_2YXOR3vkRUL7HFc","standard","1","34","LP","19.8235243429556","282.749","302.579","302.95","20.201","0.371","3","99",""
"35","R_2YXOR3vkRUL7HFc","standard","1","35","LP","5.5010771219302","303.956","309.459","309.718","5.762","0.259","3","102",""
"36","R_2YXOR3vkRUL7HFc","standard","1","36","LP","2.15079707022835","310.723","312.876","313.143","2.42","0.267","3","105",""
"37","R_2YXOR3vkRUL7HFc","standard","1","37","LP","30","314.148","344.156","344.392","30.244","0.236","3","108",""
"38","R_2YXOR3vkRUL7HFc","standard","1","38","LP","1.25738905644119","345.395","346.672","346.96","1.565","0.288","3","111",""
"39","R_2YXOR3vkRUL7HFc","standard","1","39","LP","1.25738905644119","347.964","349.228","349.496","1.532","0.268","3","114",""
"40","R_2YXOR3vkRUL7HFc","standard","1","40","LP","13.0392072382594","350.5","363.548","363.881","13.381","0.333","3","117",""
"41","R_2YXOR3vkRUL7HFc","standard","1","41","LP","13.0392072382594","364.883","377.924","378.242","13.359","0.318","3","120",""
"42","R_2YXOR3vkRUL7HFc","standard","1","42","LP","5.5010771219302","379.243","384.748","385.018","5.775","0.27","3","123",""
"43","R_2YXOR3vkRUL7HFc","standard","1","43","LP","5.5010771219302","386.018","391.522","391.859","5.841","0.337","3","126",""
"44","R_2YXOR3vkRUL7HFc","standard","1","44","LP","5.5010771219302","392.86","398.363","398.667","5.807","0.304","3","129",""
"45","R_2YXOR3vkRUL7HFc","standard","1","45","LP","3.49090909090909","399.668","403.175","403.483","3.815","0.308","3","132",""
"46","R_2YXOR3vkRUL7HFc","standard","1","46","LP","0.661783713916415","404.492","405.156","405.635","1.143","0.479","3","135",""
"47","R_2YXOR3vkRUL7HFc","standard","1","47","LP","8.51632916846187","406.644","415.164","415.468","8.824","0.304","3","138",""
"48","R_2YXOR3vkRUL7HFc","standard","1","48","LP","8.51632916846187","416.475","424.995","425.3","8.825","0.305","3","141",""
"49","R_2YXOR3vkRUL7HFc","standard","1","49","LP","13.0392072382594","426.308","439.356","439.669","13.361","0.313","3","144",""
"50","R_2YXOR3vkRUL7HFc","standard","1","50","LP","30","440.676","470.684","470.927","30.251","0.243","3","147",""
"51","R_2YXOR3vkRUL7HFc","standard","1","51","LP","0.264713485566566","471.932","472.209","472.558","0.626","0.349","3","150",""
"52","R_2YXOR3vkRUL7HFc","standard","1","52","LP","5.5010771219302","473.564","479.074","479.383","5.819","0.309","3","153",""
"53","R_2YXOR3vkRUL7HFc","standard","1","53","LP","3.49090909090909","480.387","483.891","484.143","3.756","0.252","3","156",""
"54","R_2YXOR3vkRUL7HFc","standard","1","54","LP","30","485.148","515.156","515.425","30.277","0.269","3","159",""
"55","R_2YXOR3vkRUL7HFc","standard","1","55","LP","13.0392072382594","516.428","529.476","529.762","13.334","0.286","3","162",""
"56","R_2YXOR3vkRUL7HFc","standard","1","56","LP","13.0392072382594","530.774","543.821","544.139","13.365","0.318","3","165",""
"57","R_2YXOR3vkRUL7HFc","standard","1","57","LP","30","545.14","575.148","575.38","30.24","0.232","3","168",""
"58","R_2YXOR3vkRUL7HFc","standard","1","58","LP","3.49090909090909","576.388","579.884","580.164","3.776","0.28","3","171",""
"59","R_2YXOR3vkRUL7HFc","standard","1","59","LP","8.51632916846187","581.172","589.692","589.989","8.817","0.297","3","174",""
"60","R_2YXOR3vkRUL7HFc","standard","1","60","LP","3.49090909090909","590.996","594.491","594.781","3.785","0.29","3","177",""
"61","R_2YXOR3vkRUL7HFc","standard","1","61","LP","30","595.788","625.796","626.015","30.227","0.219","3","180",""
"62","R_2YXOR3vkRUL7HFc","standard","1","62","LP","5.5010771219302","627.021","632.525","632.847","5.826","0.322","3","183",""
"63","R_2YXOR3vkRUL7HFc","standard","1","63","LP","30","633.852","663.86","664.097","30.245","0.237","3","186",""
"64","R_2YXOR3vkRUL7HFc","standard","1","64","LP","13.0392072382594","665.1","678.141","678.441","13.341","0.3","3","189",""
"65","R_2YXOR3vkRUL7HFc","standard","1","65","LP","13.0392072382594","679.443","692.485","692.81","13.367","0.325","3","192",""
"66","R_2YXOR3vkRUL7HFc","standard","1","66","LP","0.264713485566566","693.812","694.083","694.402","0.59","0.319","3","195",""
"67","R_2YXOR3vkRUL7HFc","standard","1","67","LP","5.5010771219302","695.404","700.916","701.234","5.83","0.318","3","198",""
"68","R_2YXOR3vkRUL7HFc","standard","1","68","LP","0.661783713916415","702.236","702.901","703.186","0.95","0.285","3","201",""
"69","R_2YXOR3vkRUL7HFc","standard","1","69","LP","3.49090909090909","704.188","707.684","707.995","3.807","0.311","3","204",""
"70","R_2YXOR3vkRUL7HFc","standard","1","70","LP","30","708.997","739.004","739.228","30.231","0.224","3","207",""
"71","R_2YXOR3vkRUL7HFc","standard","1","71","LP","8.51632916846187","740.237","748.756","749.044","8.807","0.288","3","210",""
"72","R_2YXOR3vkRUL7HFc","standard","1","72","LP","13.0392072382594","750.053","763.111","763.446","13.393","0.335","3","213",""
"73","R_2YXOR3vkRUL7HFc","standard","1","73","LP","0.264713485566566","764.453","764.725","765.037","0.584","0.312","3","216",""
"74","R_2YXOR3vkRUL7HFc","standard","1","74","LP","19.8235243429556","766.044","785.868","786.223","20.179","0.355","3","219",""
"75","R_2YXOR3vkRUL7HFc","standard","1","75","LP","13.0392072382594","787.243","800.284","800.623","13.38","0.339","3","222",""
"76","R_2YXOR3vkRUL7HFc","standard","1","76","LP","5.5010771219302","801.627","807.129","807.447","5.82","0.318","3","225",""
"77","R_2YXOR3vkRUL7HFc","standard","1","77","LP","8.51632916846187","808.451","816.972","817.256","8.805","0.284","3","228",""
"78","R_2YXOR3vkRUL7HFc","standard","1","78","LP","0.661783713916415","818.26","818.922","819.264","1.004","0.342","3","231",""
"79","R_2YXOR3vkRUL7HFc","standard","1","79","LP","13.0392072382594","820.268","833.309","833.601","13.333","0.292","3","234",""
"80","R_2YXOR3vkRUL7HFc","standard","1","80","LP","5.5010771219302","834.604","840.108","840.417","5.813","0.309","3","237",""
"81","R_2YXOR3vkRUL7HFc","standard","1","81","LP","19.8235243429556","841.42","861.243","861.563","20.143","0.32","3","240",""
"82","R_2YXOR3vkRUL7HFc","standard","1","82","LP","2.15079707022835","862.564","864.714","865.002","2.438","0.288","3","243",""
"83","R_2YXOR3vkRUL7HFc","standard","1","83","LP","3.49090909090909","866.004","869.5","869.81","3.806","0.31","3","246",""
"84","R_2YXOR3vkRUL7HFc","standard","1","84","LP","8.51632916846187","870.814","879.331","879.627","8.813","0.296","3","249",""
"85","R_2YXOR3vkRUL7HFc","standard","2","1","LP","0.661783713916415","0","0.67","1.331","1.331","0.661","3","252",NA
"86","R_2YXOR3vkRUL7HFc","standard","2","2","LP","1.25738905644119","2.334","3.598","3.875","1.541","0.277","3","255",NA
"87","R_2YXOR3vkRUL7HFc","standard","2","3","LP","19.8235243429556","4.879","NaN","6.019","1.14","NaN","0","255",NA
"88","R_2YXOR3vkRUL7HFc","standard","2","4","LP","2.15079707022835","7.021","NaN","8.771","1.75","NaN","0","255",NA
"89","R_2YXOR3vkRUL7HFc","standard","2","5","LP","13.0392072382594","9.774","NaN","11.251","1.477","NaN","0","255",NA
"90","R_2YXOR3vkRUL7HFc","standard","2","6","LP","3.49090909090909","12.254","NaN","14.707","2.453","NaN","0","255",NA
"91","R_2YXOR3vkRUL7HFc","standard","2","7","LP","30","15.71","NaN","19.58","3.87","NaN","0","255",NA
"92","R_2YXOR3vkRUL7HFc","standard","2","8","LP","3.49090909090909","20.582","24.082","24.348","3.766","0.266","3","258",NA
"93","R_2YXOR3vkRUL7HFc","standard","2","9","LP","19.8235243429556","25.35","45.182","45.469","20.119","0.287","3","261",NA
"94","R_2YXOR3vkRUL7HFc","standard","2","10","LP","8.51632916846187","46.47","54.99","55.277","8.807","0.287","3","264",NA
"95","R_2YXOR3vkRUL7HFc","standard","2","11","LP","8.51632916846187","56.298","64.822","65.093","8.795","0.271","3","267",NA
"96","R_2YXOR3vkRUL7HFc","standard","2","12","LP","0.661783713916415","66.101","66.766","67.021","0.92","0.255","3","270",NA
"97","R_2YXOR3vkRUL7HFc","standard","2","13","LP","13.0392072382594","68.022","81.069","81.374","13.352","0.305","3","273",NA
"98","R_2YXOR3vkRUL7HFc","standard","2","14","LP","0.264713485566566","82.382","82.654","82.918","0.536","0.264","3","276",NA
"99","R_2YXOR3vkRUL7HFc","standard","2","15","LP","0.661783713916415","83.922","84.589","84.822","0.9","0.233","3","279",NA
"100","R_2YXOR3vkRUL7HFc","standard","2","16","LP","5.5010771219302","85.822","91.326","91.623","5.801","0.297","3","282",NA
"101","R_2YXOR3vkRUL7HFc","standard","2","17","LP","30","92.629","122.637","122.865","30.236","0.228","3","285",NA
"102","R_2YXOR3vkRUL7HFc","standard","2","18","LP","0.661783713916415","123.87","124.534","124.793","0.923","0.259","3","288",NA
"103","R_2YXOR3vkRUL7HFc","standard","2","19","LP","2.15079707022835","125.805","127.964","128.257","2.452","0.293","3","291",NA
"104","R_2YXOR3vkRUL7HFc","standard","2","20","LP","1.25738905644119","129.265","130.524","130.865","1.6","0.341","3","294",NA
"105","R_2YXOR3vkRUL7HFc","standard","2","21","LP","3.49090909090909","131.874","135.366","135.681","3.807","0.315","3","297",NA
"106","R_2YXOR3vkRUL7HFc","standard","2","22","LP","1.25738905644119","136.686","137.951","138.249","1.563","0.298","3","300",NA
"107","R_2YXOR3vkRUL7HFc","standard","2","23","LP","1.25738905644119","139.254","140.516","140.794","1.54","0.278","3","303",NA
"108","R_2YXOR3vkRUL7HFc","standard","2","24","LP","0.661783713916415","141.799","142.472","142.793","0.994","0.321","3","306",NA
"109","R_2YXOR3vkRUL7HFc","standard","2","25","LP","13.0392072382594","143.798","156.838","157.155","13.357","0.317","3","309",NA
"110","R_2YXOR3vkRUL7HFc","standard","2","26","LP","5.5010771219302","158.166","163.67","164.003","5.837","0.333","3","312",NA
"111","R_2YXOR3vkRUL7HFc","standard","2","27","LP","1.25738905644119","165.006","166.27","166.547","1.541","0.277","3","315",NA
"112","R_2YXOR3vkRUL7HFc","standard","2","28","LP","8.51632916846187","167.564","176.086","176.404","8.84","0.318","3","318",NA
"113","R_2YXOR3vkRUL7HFc","standard","2","29","LP","8.51632916846187","177.407","185.925","186.203","8.796","0.278","3","321",NA
"114","R_2YXOR3vkRUL7HFc","standard","2","30","LP","1.25738905644119","187.217","188.48","188.788","1.571","0.308","3","324",NA
"115","R_2YXOR3vkRUL7HFc","standard","2","31","LP","1.25738905644119","189.789","191.053","191.355","1.566","0.302","3","327",NA
"116","R_2YXOR3vkRUL7HFc","standard","2","32","LP","2.15079707022835","192.368","194.525","194.795","2.427","0.27","3","330",NA
"117","R_2YXOR3vkRUL7HFc","standard","2","33","LP","0.264713485566566","195.798","196.084","196.46","0.662","0.376","3","333",NA
"118","R_2YXOR3vkRUL7HFc","standard","2","34","LP","2.15079707022835","197.462","199.621","199.94","2.478","0.319","3","336",NA
"119","R_2YXOR3vkRUL7HFc","standard","2","35","LP","0.264713485566566","200.941","201.218","201.564","0.623","0.346","3","339",NA
"120","R_2YXOR3vkRUL7HFc","standard","2","36","LP","13.0392072382594","202.565","215.615","215.965","13.4","0.35","3","342",NA
"121","R_2YXOR3vkRUL7HFc","standard","2","37","LP","0.661783713916415","216.973","217.637","217.949","0.976","0.312","3","345",NA
"122","R_2YXOR3vkRUL7HFc","standard","2","38","LP","0.661783713916415","218.957","219.622","219.893","0.936","0.271","3","348",NA
"123","R_2YXOR3vkRUL7HFc","standard","2","39","LP","0.661783713916415","220.902","221.572","221.853","0.951","0.281","3","351",NA
"124","R_2YXOR3vkRUL7HFc","standard","2","40","LP","19.8235243429556","222.862","242.702","242.983","20.121","0.281","3","354",NA
"125","R_2YXOR3vkRUL7HFc","standard","2","41","LP","0.264713485566566","243.991","244.268","244.567","0.576","0.299","3","357",NA
"126","R_2YXOR3vkRUL7HFc","standard","2","42","LP","3.49090909090909","245.574","249.07","249.391","3.817","0.321","3","360",NA
"127","R_2YXOR3vkRUL7HFc","standard","2","43","LP","5.5010771219302","250.398","255.902","256.264","5.866","0.362","3","363",NA
"128","R_2YXOR3vkRUL7HFc","standard","2","44","LP","2.15079707022835","257.271","259.421","259.735","2.464","0.314","3","366",NA
"129","R_2YXOR3vkRUL7HFc","standard","2","45","LP","19.8235243429556","260.742","280.574","280.889","20.147","0.315","3","369",NA
"130","R_2YXOR3vkRUL7HFc","standard","2","46","LP","3.49090909090909","281.903","285.398","285.673","3.77","0.275","3","372",NA
"131","R_2YXOR3vkRUL7HFc","standard","2","47","LP","5.5010771219302","286.678","292.182","292.505","5.827","0.323","3","375",NA
"132","R_2YXOR3vkRUL7HFc","standard","2","48","LP","30","293.507","323.513","323.771","30.264","0.258","3","378",NA
"133","R_2YXOR3vkRUL7HFc","standard","2","49","LP","8.51632916846187","324.774","333.294","333.603","8.829","0.309","3","381",NA
"134","R_2YXOR3vkRUL7HFc","standard","2","50","LP","0.264713485566566","334.606","334.878","335.187","0.581","0.309","3","384",NA
"135","R_2YXOR3vkRUL7HFc","standard","2","51","LP","2.15079707022835","336.19","338.342","338.611","2.421","0.269","3","387",NA
"136","R_2YXOR3vkRUL7HFc","standard","2","52","LP","1.25738905644119","339.613","340.89","341.147","1.534","0.257","3","390",NA
"137","R_2YXOR3vkRUL7HFc","standard","2","53","LP","5.5010771219302","342.164","347.67","347.98","5.816","0.31","3","393",NA
"138","R_2YXOR3vkRUL7HFc","standard","2","54","LP","13.0392072382594","348.982","362.022","362.365","13.383","0.343","3","396",NA
"139","R_2YXOR3vkRUL7HFc","standard","2","55","LP","0.661783713916415","363.366","364.03","364.308","0.942","0.278","3","399",NA
"140","R_2YXOR3vkRUL7HFc","standard","2","56","LP","3.49090909090909","365.313","368.807","369.108","3.795","0.301","3","402",NA
"141","R_2YXOR3vkRUL7HFc","standard","2","57","LP","3.49090909090909","370.114","NaN","370.493","0.379","NaN","0","402",NA
"142","R_2YXOR3vkRUL7HFc","standard","2","58","LP","13.0392072382594","371.505","384.549","384.902","13.397","0.353","3","405",NA
"143","R_2YXOR3vkRUL7HFc","standard","2","59","LP","8.51632916846187","385.907","394.43","394.75","8.843","0.32","3","408",NA
"144","R_2YXOR3vkRUL7HFc","standard","2","60","LP","3.49090909090909","395.758","399.253","399.566","3.808","0.313","3","411",NA
"145","R_2YXOR3vkRUL7HFc","standard","2","61","LP","0.264713485566566","400.574","400.845","401.262","0.688","0.417","3","414",NA
"146","R_2YXOR3vkRUL7HFc","standard","2","62","LP","2.15079707022835","402.269","404.422","404.71","2.441","0.288","3","417",NA
"147","R_2YXOR3vkRUL7HFc","standard","2","63","LP","8.51632916846187","405.714","414.231","414.543","8.829","0.312","3","420",NA
"148","R_2YXOR3vkRUL7HFc","standard","2","64","LP","19.8235243429556","415.55","435.382","435.737","20.187","0.355","3","423",NA
"149","R_2YXOR3vkRUL7HFc","standard","2","65","LP","5.5010771219302","436.741","442.247","442.545","5.804","0.298","3","426",NA
"150","R_2YXOR3vkRUL7HFc","standard","2","66","LP","0.661783713916415","443.55","444.216","444.545","0.995","0.329","3","429",NA
"151","R_2YXOR3vkRUL7HFc","standard","2","67","LP","19.8235243429556","445.55","465.382","465.714","20.164","0.332","3","432",NA
"152","R_2YXOR3vkRUL7HFc","standard","2","68","LP","19.8235243429556","466.716","486.542","486.851","20.135","0.309","3","435",NA
"153","R_2YXOR3vkRUL7HFc","standard","2","69","LP","2.15079707022835","487.854","490.006","490.339","2.485","0.333","3","438",NA
"154","R_2YXOR3vkRUL7HFc","standard","2","70","LP","8.51632916846187","491.341","499.861","500.188","8.847","0.327","3","441",NA
"155","R_2YXOR3vkRUL7HFc","standard","2","71","LP","2.15079707022835","501.19","503.341","503.691","2.501","0.35","3","444",NA
"156","R_2YXOR3vkRUL7HFc","standard","2","72","LP","0.264713485566566","504.694","504.967","505.356","0.662","0.389","3","447",NA
"157","R_2YXOR3vkRUL7HFc","standard","2","73","LP","13.0392072382594","506.358","519.399","519.741","13.383","0.342","3","450",NA
"158","R_2YXOR3vkRUL7HFc","standard","2","74","LP","30","520.742","550.749","550.998","30.256","0.249","3","453",NA
"159","R_2YXOR3vkRUL7HFc","standard","2","75","LP","3.49090909090909","552.006","555.501","555.813","3.807","0.312","3","456",NA
"160","R_2YXOR3vkRUL7HFc","standard","2","76","LP","0.264713485566566","556.818","557.086","557.454","0.636","0.368","3","459",NA
"161","R_2YXOR3vkRUL7HFc","standard","2","77","LP","0.264713485566566","558.462","558.733","559.054","0.592","0.321","3","462",NA
"162","R_2YXOR3vkRUL7HFc","standard","2","78","LP","8.51632916846187","560.061","568.582","568.902","8.841","0.32","3","465",NA
"163","R_2YXOR3vkRUL7HFc","standard","2","79","LP","8.51632916846187","569.91","578.429","578.791","8.881","0.362","3","468",NA
"164","R_2YXOR3vkRUL7HFc","standard","2","80","LP","8.51632916846187","579.797","588.324","588.735","8.938","0.411","3","471",NA
"165","R_2YXOR3vkRUL7HFc","standard","2","81","LP","1.25738905644119","589.741","591.005","591.295","1.554","0.29","3","474",NA
"166","R_2YXOR3vkRUL7HFc","standard","2","82","LP","0.661783713916415","592.301","592.965","593.351","1.05","0.386","3","477",NA
"167","R_2YXOR3vkRUL7HFc","standard","2","83","LP","0.661783713916415","594.358","595.022","595.327","0.969","0.305","3","480",NA
