"","subject_id","condition","n_block","n_trialIdx","f_timing_condition","n_scheduled_delay","n_trial_start_time","n_rewarded_time_fin","n_sell_time_fin","n_time_waited_fin","RT_fin","n_trial_earnings_fin","n_total_earnings_fin","keypress_times"
"1","R_2zTqLx9ByZ2QU93","standard","1","1","LP","13.0392072382594","0.002","13.056","13.429","13.427","0.373","3","3",""
"2","R_2zTqLx9ByZ2QU93","standard","1","2","LP","30","14.431","44.433","44.78","30.349","0.347","3","6",""
"3","R_2zTqLx9ByZ2QU93","standard","1","3","LP","0.264713485566566","45.783","46.061","46.749","0.966","0.688","3","9",""
"4","R_2zTqLx9ByZ2QU93","standard","1","4","LP","8.51632916846187","47.75","56.273","56.806","9.056","0.533","3","12",""
"5","R_2zTqLx9ByZ2QU93","standard","1","5","LP","13.0392072382594","57.81","70.851","71.476","13.666","0.625","3","15",""
"6","R_2zTqLx9ByZ2QU93","standard","1","6","LP","1.25738905644119","72.479","73.743","74.166","1.687","0.423","3","18",""
"7","R_2zTqLx9ByZ2QU93","standard","1","7","LP","3.49090909090909","75.169","78.67","79.32","4.151","0.65","3","21",""
"8","R_2zTqLx9ByZ2QU93","standard","1","8","LP","2.15079707022835","80.328","82.479","83.092","2.764","0.613","3","24",""
"9","R_2zTqLx9ByZ2QU93","standard","1","9","LP","0.661783713916415","84.095","84.774","85.574","1.479","0.8","3","27",""
"10","R_2zTqLx9ByZ2QU93","standard","1","10","LP","0.661783713916415","86.577","87.247","87.983","1.406","0.736","3","30",""
"11","R_2zTqLx9ByZ2QU93","standard","1","11","LP","1.25738905644119","88.989","90.248","90.61","1.621","0.362","3","33",""
"12","R_2zTqLx9ByZ2QU93","standard","1","12","LP","3.49090909090909","91.619","95.111","95.493","3.874","0.382","3","36",""
"13","R_2zTqLx9ByZ2QU93","standard","1","13","LP","5.5010771219302","96.501","102.014","102.35","5.849","0.336","3","39",""
"14","R_2zTqLx9ByZ2QU93","standard","1","14","LP","0.661783713916415","103.352","104.015","104.942","1.59","0.927","3","42",""
"15","R_2zTqLx9ByZ2QU93","standard","1","15","LP","8.51632916846187","105.951","114.471","114.821","8.87","0.35","3","45",""
"16","R_2zTqLx9ByZ2QU93","standard","1","16","LP","8.51632916846187","115.823","124.344","124.822","8.999","0.478","3","48",""
"17","R_2zTqLx9ByZ2QU93","standard","1","17","LP","13.0392072382594","125.824","138.871","139.307","13.483","0.436","3","51",""
"18","R_2zTqLx9ByZ2QU93","standard","1","18","LP","19.8235243429556","140.308","160.135","160.492","20.184","0.357","3","54",""
"19","R_2zTqLx9ByZ2QU93","standard","1","19","LP","1.25738905644119","161.507","162.768","163.278","1.771","0.51","3","57",""
"20","R_2zTqLx9ByZ2QU93","standard","1","20","LP","0.661783713916415","164.291","164.96","165.486","1.195","0.526","3","60",""
"21","R_2zTqLx9ByZ2QU93","standard","1","21","LP","5.5010771219302","166.488","171.991","172.359","5.871","0.368","3","63",""
"22","R_2zTqLx9ByZ2QU93","standard","1","22","LP","13.0392072382594","173.371","186.411","186.789","13.418","0.378","3","66",""
"23","R_2zTqLx9ByZ2QU93","standard","1","23","LP","0.264713485566566","187.792","188.066","188.575","0.783","0.509","3","69",""
"24","R_2zTqLx9ByZ2QU93","standard","1","24","LP","19.8235243429556","189.589","209.416","209.788","20.199","0.372","3","72",""
"25","R_2zTqLx9ByZ2QU93","standard","1","25","LP","1.25738905644119","210.804","212.063","212.777","1.973","0.714","3","75",""
"26","R_2zTqLx9ByZ2QU93","standard","1","26","LP","1.25738905644119","213.784","215.048","215.471","1.687","0.423","3","78",""
"27","R_2zTqLx9ByZ2QU93","standard","1","27","LP","2.15079707022835","216.492","218.652","219.154","2.662","0.502","3","81",""
"28","R_2zTqLx9ByZ2QU93","standard","1","28","LP","13.0392072382594","220.175","233.216","233.706","13.531","0.49","3","84",""
"29","R_2zTqLx9ByZ2QU93","standard","1","29","LP","5.5010771219302","234.712","240.214","240.623","5.911","0.409","3","87",""
"30","R_2zTqLx9ByZ2QU93","standard","1","30","LP","3.49090909090909","241.631","245.128","245.574","3.943","0.446","3","90",""
"31","R_2zTqLx9ByZ2QU93","standard","1","31","LP","13.0392072382594","246.583","259.623","260.08","13.497","0.457","3","93",""
"32","R_2zTqLx9ByZ2QU93","standard","1","32","LP","0.264713485566566","261.093","261.36","261.847","0.754","0.487","3","96",""
"33","R_2zTqLx9ByZ2QU93","standard","1","33","LP","19.8235243429556","262.849","282.68","283.12","20.271","0.44","3","99",""
"34","R_2zTqLx9ByZ2QU93","standard","1","34","LP","30","284.127","314.137","314.517","30.39","0.38","3","102",""
"35","R_2zTqLx9ByZ2QU93","standard","1","35","LP","13.0392072382594","315.525","328.572","328.966","13.441","0.394","3","105",""
"36","R_2zTqLx9ByZ2QU93","standard","1","36","LP","1.25738905644119","329.971","331.232","331.631","1.66","0.399","3","108",""
"37","R_2zTqLx9ByZ2QU93","standard","1","37","LP","30","332.64","362.647","363.018","30.378","0.371","3","111",""
"38","R_2zTqLx9ByZ2QU93","standard","1","38","LP","30","364.023","394.031","394.406","30.383","0.375","3","114",""
"39","R_2zTqLx9ByZ2QU93","standard","1","39","LP","8.51632916846187","395.408","403.927","NA","9.528","NA","0","114",""
"40","R_2zTqLx9ByZ2QU93","standard","1","40","LP","30","405.944","435.951","436.326","30.382","0.375","3","117",""
"41","R_2zTqLx9ByZ2QU93","standard","1","41","LP","1.25738905644119","437.327","438.599","439.026","1.699","0.427","3","120",""
"42","R_2zTqLx9ByZ2QU93","standard","1","42","LP","30","440.045","470.059","470.421","30.376","0.362","3","123",""
"43","R_2zTqLx9ByZ2QU93","standard","1","43","LP","19.8235243429556","471.424","491.255","491.688","20.264","0.433","3","126",""
"44","R_2zTqLx9ByZ2QU93","standard","1","44","LP","2.15079707022835","492.695","494.847","495.28","2.585","0.433","3","129",""
"45","R_2zTqLx9ByZ2QU93","standard","1","45","LP","0.264713485566566","496.288","496.553","497.087","0.799","0.534","3","132",""
"46","R_2zTqLx9ByZ2QU93","standard","1","46","LP","5.5010771219302","498.096","503.602","504.089","5.993","0.487","3","135",""
"47","R_2zTqLx9ByZ2QU93","standard","1","47","LP","5.5010771219302","505.097","510.614","510.975","5.878","0.361","3","138",""
"48","R_2zTqLx9ByZ2QU93","standard","1","48","LP","30","511.983","541.991","542.358","30.375","0.367","3","141",""
"49","R_2zTqLx9ByZ2QU93","standard","1","49","LP","2.15079707022835","543.359","545.515","546.008","2.649","0.493","3","144",""
"50","R_2zTqLx9ByZ2QU93","standard","1","50","LP","8.51632916846187","547.009","555.528","555.919","8.91","0.391","3","147",""
"51","R_2zTqLx9ByZ2QU93","standard","1","51","LP","0.264713485566566","556.92","557.198","557.808","0.888","0.61","3","150",""
"52","R_2zTqLx9ByZ2QU93","standard","1","52","LP","19.8235243429556","558.808","578.639","579.022","20.214","0.383","3","153",""
"53","R_2zTqLx9ByZ2QU93","standard","1","53","LP","3.49090909090909","580.023","583.513","NA","4.498","NA","0","153",""
"54","R_2zTqLx9ByZ2QU93","standard","1","54","LP","19.8235243429556","585.528","605.359","605.783","20.255","0.424","3","156",""
"55","R_2zTqLx9ByZ2QU93","standard","1","55","LP","8.51632916846187","606.792","615.311","615.736","8.944","0.425","3","159",""
"56","R_2zTqLx9ByZ2QU93","standard","1","56","LP","3.49090909090909","616.739","620.231","620.744","4.005","0.513","3","162",""
"57","R_2zTqLx9ByZ2QU93","standard","1","57","LP","8.51632916846187","621.751","630.271","631.128","9.377","0.857","3","165",""
"58","R_2zTqLx9ByZ2QU93","standard","1","58","LP","1.25738905644119","632.136","633.403","633.912","1.776","0.509","3","168",""
"59","R_2zTqLx9ByZ2QU93","standard","1","59","LP","8.51632916846187","634.913","643.431","643.943","9.03","0.512","3","171",""
"60","R_2zTqLx9ByZ2QU93","standard","1","60","LP","8.51632916846187","644.957","653.479","653.865","8.908","0.386","3","174",""
"61","R_2zTqLx9ByZ2QU93","standard","1","61","LP","3.49090909090909","654.872","658.368","658.769","3.897","0.401","3","177",""
"62","R_2zTqLx9ByZ2QU93","standard","1","62","LP","0.264713485566566","659.776","660.047","660.584","0.808","0.537","3","180",""
"63","R_2zTqLx9ByZ2QU93","standard","1","63","LP","19.8235243429556","661.592","681.424","681.911","20.319","0.487","3","183",""
"64","R_2zTqLx9ByZ2QU93","standard","1","64","LP","3.49090909090909","682.912","686.408","NA","4.496","NA","0","183",""
"65","R_2zTqLx9ByZ2QU93","standard","1","65","LP","2.15079707022835","688.41","690.582","NA","3.184","NA","0","183",""
"66","R_2zTqLx9ByZ2QU93","standard","1","66","LP","19.8235243429556","692.608","712.439","712.894","20.286","0.455","3","186",""
"67","R_2zTqLx9ByZ2QU93","standard","1","67","LP","19.8235243429556","713.895","733.719","734.192","20.297","0.473","3","189",""
"68","R_2zTqLx9ByZ2QU93","standard","1","68","LP","1.25738905644119","735.212","736.471","737.113","1.901","0.642","3","192",""
"69","R_2zTqLx9ByZ2QU93","standard","1","69","LP","19.8235243429556","738.12","757.954","758.391","20.271","0.437","3","195",""
"70","R_2zTqLx9ByZ2QU93","standard","1","70","LP","30","759.4","789.407","789.777","30.377","0.37","3","198",""
"71","R_2zTqLx9ByZ2QU93","standard","1","71","LP","30","790.794","820.799","821.115","30.321","0.316","3","201",""
"72","R_2zTqLx9ByZ2QU93","standard","1","72","LP","5.5010771219302","822.119","827.624","828.022","5.903","0.398","3","204",""
"73","R_2zTqLx9ByZ2QU93","standard","1","73","LP","19.8235243429556","829.024","848.856","849.264","20.24","0.408","3","207",""
"74","R_2zTqLx9ByZ2QU93","standard","1","74","LP","8.51632916846187","850.271","858.8","859.161","8.89","0.361","3","210",""
"75","R_2zTqLx9ByZ2QU93","standard","1","75","LP","3.49090909090909","860.182","863.679","864.083","3.901","0.404","3","213",""
"76","R_2zTqLx9ByZ2QU93","standard","1","76","LP","5.5010771219302","865.087","870.598","871.001","5.914","0.403","3","216",""
"77","R_2zTqLx9ByZ2QU93","standard","1","77","LP","1.25738905644119","872.007","873.28","873.753","1.746","0.473","3","219",""
"78","R_2zTqLx9ByZ2QU93","standard","1","78","LP","1.25738905644119","874.759","876.024","876.49","1.731","0.466","3","222",""
"79","R_2zTqLx9ByZ2QU93","standard","1","79","LP","0.264713485566566","877.508","877.788","878.217","0.709","0.429","3","225",""
"80","R_2zTqLx9ByZ2QU93","standard","2","1","LP","30","0","NaN","16.276","16.276","NaN","0","225",NA
"81","R_2zTqLx9ByZ2QU93","standard","2","2","LP","2.15079707022835","17.281","19.433","19.867","2.586","0.434","3","228",NA
"82","R_2zTqLx9ByZ2QU93","standard","2","3","LP","5.5010771219302","20.88","NaN","21.788","0.908","NaN","0","228",NA
"83","R_2zTqLx9ByZ2QU93","standard","2","4","LP","0.264713485566566","22.793","23.066","23.651","0.858","0.585","3","231",NA
"84","R_2zTqLx9ByZ2QU93","standard","2","5","LP","2.15079707022835","24.658","26.823","27.258","2.6","0.435","3","234",NA
"85","R_2zTqLx9ByZ2QU93","standard","2","6","LP","0.264713485566566","28.265","28.537","28.996","0.731","0.459","3","237",NA
"86","R_2zTqLx9ByZ2QU93","standard","2","7","LP","2.15079707022835","30.001","32.154","32.684","2.683","0.53","3","240",NA
"87","R_2zTqLx9ByZ2QU93","standard","2","8","LP","0.264713485566566","33.702","33.97","34.47","0.768","0.5","3","243",NA
"88","R_2zTqLx9ByZ2QU93","standard","2","9","LP","0.264713485566566","35.473","35.745","36.172","0.699","0.427","3","246",NA
"89","R_2zTqLx9ByZ2QU93","standard","2","10","LP","3.49090909090909","37.179","40.677","41.125","3.946","0.448","3","249",NA
"90","R_2zTqLx9ByZ2QU93","standard","2","11","LP","2.15079707022835","42.145","44.313","44.699","2.554","0.386","3","252",NA
"91","R_2zTqLx9ByZ2QU93","standard","2","12","LP","3.49090909090909","45.706","49.209","49.691","3.985","0.482","3","255",NA
"92","R_2zTqLx9ByZ2QU93","standard","2","13","LP","5.5010771219302","50.706","56.21","56.673","5.967","0.463","3","258",NA
"93","R_2zTqLx9ByZ2QU93","standard","2","14","LP","0.264713485566566","57.682","57.955","58.459","0.777","0.504","3","261",NA
"94","R_2zTqLx9ByZ2QU93","standard","2","15","LP","2.15079707022835","59.474","61.626","62.036","2.562","0.41","3","264",NA
"95","R_2zTqLx9ByZ2QU93","standard","2","16","LP","30","63.041","NaN","69.603","6.562","NaN","0","264",NA
"96","R_2zTqLx9ByZ2QU93","standard","2","17","LP","13.0392072382594","70.604","NaN","80.923","10.319","NaN","0","264",NA
"97","R_2zTqLx9ByZ2QU93","standard","2","18","LP","3.49090909090909","81.93","85.425","85.9","3.97","0.475","3","267",NA
"98","R_2zTqLx9ByZ2QU93","standard","2","19","LP","0.264713485566566","86.906","87.178","87.637","0.731","0.459","3","270",NA
"99","R_2zTqLx9ByZ2QU93","standard","2","20","LP","1.25738905644119","88.641","89.919","90.307","1.666","0.388","3","273",NA
"100","R_2zTqLx9ByZ2QU93","standard","2","21","LP","5.5010771219302","91.308","NaN","94.415","3.107","NaN","0","273",NA
"101","R_2zTqLx9ByZ2QU93","standard","2","22","LP","5.5010771219302","95.418","100.921","101.396","5.978","0.475","3","276",NA
"102","R_2zTqLx9ByZ2QU93","standard","2","23","LP","5.5010771219302","102.401","107.907","108.34","5.939","0.433","3","279",NA
"103","R_2zTqLx9ByZ2QU93","standard","2","24","LP","1.25738905644119","109.346","110.61","111.005","1.659","0.395","3","282",NA
"104","R_2zTqLx9ByZ2QU93","standard","2","25","LP","13.0392072382594","112.01","NaN","119.613","7.603","NaN","0","282",NA
"105","R_2zTqLx9ByZ2QU93","standard","2","26","LP","2.15079707022835","120.617","122.77","123.156","2.539","0.386","3","285",NA
"106","R_2zTqLx9ByZ2QU93","standard","2","27","LP","8.51632916846187","124.161","NaN","131.471","7.31","NaN","0","285",NA
"107","R_2zTqLx9ByZ2QU93","standard","2","28","LP","13.0392072382594","132.487","NaN","138.724","6.237","NaN","0","285",NA
"108","R_2zTqLx9ByZ2QU93","standard","2","29","LP","0.264713485566566","139.73","140.001","140.364","0.634","0.363","3","288",NA
"109","R_2zTqLx9ByZ2QU93","standard","2","30","LP","1.25738905644119","141.379","142.639","143.028","1.649","0.389","3","291",NA
"110","R_2zTqLx9ByZ2QU93","standard","2","31","LP","19.8235243429556","144.034","NaN","151.272","7.238","NaN","0","291",NA
"111","R_2zTqLx9ByZ2QU93","standard","2","32","LP","3.49090909090909","152.273","155.77","156.291","4.018","0.521","3","294",NA
"112","R_2zTqLx9ByZ2QU93","standard","2","33","LP","19.8235243429556","157.305","NaN","164.752","7.447","NaN","0","294",NA
"113","R_2zTqLx9ByZ2QU93","standard","2","34","LP","30","165.753","NaN","172.348","6.595","NaN","0","294",NA
"114","R_2zTqLx9ByZ2QU93","standard","2","35","LP","19.8235243429556","173.354","NaN","179.348","5.994","NaN","0","294",NA
"115","R_2zTqLx9ByZ2QU93","standard","2","36","LP","2.15079707022835","180.354","182.518","182.978","2.624","0.46","3","297",NA
"116","R_2zTqLx9ByZ2QU93","standard","2","37","LP","0.661783713916415","183.985","184.659","185.132","1.147","0.473","3","300",NA
"117","R_2zTqLx9ByZ2QU93","standard","2","38","LP","30","186.138","NaN","192.164","6.026","NaN","0","300",NA
"118","R_2zTqLx9ByZ2QU93","standard","2","39","LP","2.15079707022835","193.175","195.33","195.97","2.795","0.64","3","303",NA
"119","R_2zTqLx9ByZ2QU93","standard","2","40","LP","3.49090909090909","196.977","200.473","200.851","3.874","0.378","3","306",NA
"120","R_2zTqLx9ByZ2QU93","standard","2","41","LP","8.51632916846187","201.858","NaN","208.275","6.417","NaN","0","306",NA
"121","R_2zTqLx9ByZ2QU93","standard","2","42","LP","1.25738905644119","209.282","210.539","210.95","1.668","0.411","3","309",NA
"122","R_2zTqLx9ByZ2QU93","standard","2","43","LP","19.8235243429556","211.956","NaN","219.499","7.543","NaN","0","309",NA
"123","R_2zTqLx9ByZ2QU93","standard","2","44","LP","5.5010771219302","220.506","226.008","226.452","5.946","0.444","3","312",NA
"124","R_2zTqLx9ByZ2QU93","standard","2","45","LP","30","227.459","NaN","234.075","6.616","NaN","0","312",NA
"125","R_2zTqLx9ByZ2QU93","standard","2","46","LP","13.0392072382594","235.086","NaN","241.916","6.83","NaN","0","312",NA
"126","R_2zTqLx9ByZ2QU93","standard","2","47","LP","0.661783713916415","242.922","243.598","244.014","1.092","0.416","3","315",NA
"127","R_2zTqLx9ByZ2QU93","standard","2","48","LP","5.5010771219302","245.018","250.519","250.902","5.884","0.383","3","318",NA
"128","R_2zTqLx9ByZ2QU93","standard","2","49","LP","3.49090909090909","251.919","255.417","255.949","4.03","0.532","3","321",NA
"129","R_2zTqLx9ByZ2QU93","standard","2","50","LP","8.51632916846187","256.953","NaN","265.044","8.091","NaN","0","321",NA
"130","R_2zTqLx9ByZ2QU93","standard","2","51","LP","0.264713485566566","266.063","266.33","266.7","0.637","0.37","3","324",NA
"131","R_2zTqLx9ByZ2QU93","standard","2","52","LP","3.49090909090909","267.72","271.218","271.845","4.125","0.627","3","327",NA
"132","R_2zTqLx9ByZ2QU93","standard","2","53","LP","5.5010771219302","272.849","278.354","278.725","5.876","0.371","3","330",NA
"133","R_2zTqLx9ByZ2QU93","standard","2","54","LP","0.661783713916415","279.73","280.393","280.926","1.196","0.533","3","333",NA
"134","R_2zTqLx9ByZ2QU93","standard","2","55","LP","8.51632916846187","281.93","NaN","289.181","7.251","NaN","0","333",NA
"135","R_2zTqLx9ByZ2QU93","standard","2","56","LP","8.51632916846187","290.185","NaN","297.587","7.402","NaN","0","333",NA
"136","R_2zTqLx9ByZ2QU93","standard","2","57","LP","30","298.593","NaN","306.938","8.345","NaN","0","333",NA
"137","R_2zTqLx9ByZ2QU93","standard","2","58","LP","5.5010771219302","307.939","313.449","313.956","6.017","0.507","3","336",NA
"138","R_2zTqLx9ByZ2QU93","standard","2","59","LP","2.15079707022835","314.963","317.123","317.736","2.773","0.613","3","339",NA
"139","R_2zTqLx9ByZ2QU93","standard","2","60","LP","8.51632916846187","318.738","NaN","326.772","8.034","NaN","0","339",NA
"140","R_2zTqLx9ByZ2QU93","standard","2","61","LP","13.0392072382594","327.777","NaN","337.833","10.056","NaN","0","339",NA
"141","R_2zTqLx9ByZ2QU93","standard","2","62","LP","30","338.84","NaN","347.208","8.368","NaN","0","339",NA
"142","R_2zTqLx9ByZ2QU93","standard","2","63","LP","13.0392072382594","348.209","NaN","357.664","9.455","NaN","0","339",NA
"143","R_2zTqLx9ByZ2QU93","standard","2","64","LP","0.661783713916415","358.665","359.341","359.781","1.116","0.44","3","342",NA
"144","R_2zTqLx9ByZ2QU93","standard","2","65","LP","30","360.786","NaN","368.742","7.956","NaN","0","342",NA
"145","R_2zTqLx9ByZ2QU93","standard","2","66","LP","0.264713485566566","369.746","370.018","370.389","0.643","0.371","3","345",NA
"146","R_2zTqLx9ByZ2QU93","standard","2","67","LP","30","371.393","NaN","379.551","8.158","NaN","0","345",NA
"147","R_2zTqLx9ByZ2QU93","standard","2","68","LP","19.8235243429556","380.554","NaN","389.149","8.595","NaN","0","345",NA
"148","R_2zTqLx9ByZ2QU93","standard","2","69","LP","0.264713485566566","390.154","390.425","390.935","0.781","0.51","3","348",NA
"149","R_2zTqLx9ByZ2QU93","standard","2","70","LP","5.5010771219302","391.938","397.441","397.946","6.008","0.505","3","351",NA
"150","R_2zTqLx9ByZ2QU93","standard","2","71","LP","3.49090909090909","398.966","402.457","402.962","3.996","0.505","3","354",NA
"151","R_2zTqLx9ByZ2QU93","standard","2","72","LP","5.5010771219302","403.97","409.483","410.069","6.099","0.586","3","357",NA
"152","R_2zTqLx9ByZ2QU93","standard","2","73","LP","1.25738905644119","411.082","412.34","412.781","1.699","0.441","3","360",NA
"153","R_2zTqLx9ByZ2QU93","standard","2","74","LP","5.5010771219302","413.786","419.298","419.838","6.052","0.54","3","363",NA
"154","R_2zTqLx9ByZ2QU93","standard","2","75","LP","5.5010771219302","420.841","426.345","426.86","6.019","0.515","3","366",NA
"155","R_2zTqLx9ByZ2QU93","standard","2","76","LP","2.15079707022835","427.867","430.024","430.572","2.705","0.548","3","369",NA
"156","R_2zTqLx9ByZ2QU93","standard","2","77","LP","0.661783713916415","431.586","432.25","432.773","1.187","0.523","3","372",NA
"157","R_2zTqLx9ByZ2QU93","standard","2","78","LP","5.5010771219302","433.778","NaN","439.045","5.267","NaN","0","372",NA
"158","R_2zTqLx9ByZ2QU93","standard","2","79","LP","5.5010771219302","440.05","NaN","444.302","4.252","NaN","0","372",NA
"159","R_2zTqLx9ByZ2QU93","standard","2","80","LP","3.49090909090909","445.306","448.802","449.285","3.979","0.483","3","375",NA
"160","R_2zTqLx9ByZ2QU93","standard","2","81","LP","0.661783713916415","450.29","450.953","451.813","1.523","0.86","3","378",NA
"161","R_2zTqLx9ByZ2QU93","standard","2","82","LP","8.51632916846187","452.818","NaN","457.924","5.106","NaN","0","378",NA
"162","R_2zTqLx9ByZ2QU93","standard","2","83","LP","3.49090909090909","458.93","462.424","462.869","3.939","0.445","3","381",NA
"163","R_2zTqLx9ByZ2QU93","standard","2","84","LP","13.0392072382594","463.873","NaN","471.965","8.092","NaN","0","381",NA
"164","R_2zTqLx9ByZ2QU93","standard","2","85","LP","8.51632916846187","472.97","NaN","478.493","5.523","NaN","0","381",NA
"165","R_2zTqLx9ByZ2QU93","standard","2","86","LP","5.5010771219302","479.498","485.002","485.427","5.929","0.425","3","384",NA
"166","R_2zTqLx9ByZ2QU93","standard","2","87","LP","0.661783713916415","486.434","487.097","487.565","1.131","0.468","3","387",NA
"167","R_2zTqLx9ByZ2QU93","standard","2","88","LP","8.51632916846187","488.569","NaN","495.409","6.84","NaN","0","387",NA
"168","R_2zTqLx9ByZ2QU93","standard","2","89","LP","0.661783713916415","496.41","497.073","497.501","1.091","0.428","3","390",NA
"169","R_2zTqLx9ByZ2QU93","standard","2","90","LP","0.661783713916415","498.506","499.17","499.605","1.099","0.435","3","393",NA
"170","R_2zTqLx9ByZ2QU93","standard","2","91","LP","0.264713485566566","500.61","500.881","501.406","0.796","0.525","3","396",NA
"171","R_2zTqLx9ByZ2QU93","standard","2","92","LP","30","502.409","NaN","507.093","4.684","NaN","0","396",NA
"172","R_2zTqLx9ByZ2QU93","standard","2","93","LP","3.49090909090909","508.098","511.605","512.051","3.953","0.446","3","399",NA
"173","R_2zTqLx9ByZ2QU93","standard","2","94","LP","3.49090909090909","513.064","516.561","516.959","3.895","0.398","3","402",NA
"174","R_2zTqLx9ByZ2QU93","standard","2","95","LP","0.661783713916415","517.961","518.625","519.166","1.205","0.541","3","405",NA
"175","R_2zTqLx9ByZ2QU93","standard","2","96","LP","30","520.17","NaN","525.484","5.314","NaN","0","405",NA
"176","R_2zTqLx9ByZ2QU93","standard","2","97","LP","2.15079707022835","526.503","528.665","529.213","2.71","0.548","3","408",NA
"177","R_2zTqLx9ByZ2QU93","standard","2","98","LP","0.661783713916415","530.218","530.884","531.598","1.38","0.714","3","411",NA
"178","R_2zTqLx9ByZ2QU93","standard","2","99","LP","3.49090909090909","532.617","536.113","536.619","4.002","0.506","3","414",NA
"179","R_2zTqLx9ByZ2QU93","standard","2","100","LP","5.5010771219302","537.625","543.138","543.646","6.021","0.508","3","417",NA
"180","R_2zTqLx9ByZ2QU93","standard","2","101","LP","5.5010771219302","544.649","NaN","547.366","2.717","NaN","0","417",NA
"181","R_2zTqLx9ByZ2QU93","standard","2","102","LP","0.264713485566566","548.371","548.642","549.038","0.667","0.396","3","420",NA
"182","R_2zTqLx9ByZ2QU93","standard","2","103","LP","5.5010771219302","550.042","555.547","555.91","5.868","0.363","3","423",NA
"183","R_2zTqLx9ByZ2QU93","standard","2","104","LP","13.0392072382594","556.913","NaN","560.053","3.14","NaN","0","423",NA
"184","R_2zTqLx9ByZ2QU93","standard","2","105","LP","13.0392072382594","561.058","NaN","568.917","7.859","NaN","0","423",NA
"185","R_2zTqLx9ByZ2QU93","standard","2","106","LP","30","569.918","NaN","576.035","6.117","NaN","0","423",NA
"186","R_2zTqLx9ByZ2QU93","standard","2","107","LP","5.5010771219302","577.042","NaN","582.069","5.027","NaN","0","423",NA
"187","R_2zTqLx9ByZ2QU93","standard","2","108","LP","5.5010771219302","583.076","NaN","586.66","3.584","NaN","0","423",NA
"188","R_2zTqLx9ByZ2QU93","standard","2","109","LP","1.25738905644119","587.665","588.931","589.333","1.668","0.402","3","426",NA
"189","R_2zTqLx9ByZ2QU93","standard","2","110","LP","13.0392072382594","590.338","NaN","596.353","6.015","NaN","0","426",NA
"190","R_2zTqLx9ByZ2QU93","standard","2","111","LP","19.8235243429556","597.354","NaN","599.413","2.059","NaN","0","426",NA
