"","subject_id","condition","n_block","n_trialIdx","f_timing_condition","n_scheduled_delay","n_trial_start_time","n_rewarded_time_fin","n_sell_time_fin","n_time_waited_fin","RT_fin","n_trial_earnings_fin","n_total_earnings_fin","keypress_times"
"1","R_31AdUplms9iaYiH","standard","1","1","HP","20","0.002","20.01","20.555","20.553","0.545","3","3",""
"2","R_31AdUplms9iaYiH","standard","1","2","HP","12","21.562","33.569","34.266","12.704","0.697","3","6",""
"3","R_31AdUplms9iaYiH","standard","1","3","HP","18","35.273","53.281","53.826","18.553","0.545","3","9",""
"4","R_31AdUplms9iaYiH","standard","1","4","HP","14","54.833","68.842","69.434","14.601","0.592","3","12",""
"5","R_31AdUplms9iaYiH","standard","1","5","HP","20","70.435","90.442","90.907","20.472","0.465","3","15",""
"6","R_31AdUplms9iaYiH","standard","1","6","HP","2","91.907","93.912","NA","3.006","NA","0","15",""
"7","R_31AdUplms9iaYiH","standard","1","7","HP","18","95.915","113.923","114.45","18.535","0.527","3","18",""
"8","R_31AdUplms9iaYiH","standard","1","8","HP","12","115.451","127.458","127.929","12.478","0.471","3","21",""
"9","R_31AdUplms9iaYiH","standard","1","9","HP","20","128.931","148.938","149.411","20.48","0.473","3","24",""
"10","R_31AdUplms9iaYiH","standard","1","10","HP","6","150.416","156.419","157.112","6.696","0.693","3","27",""
"11","R_31AdUplms9iaYiH","standard","1","11","HP","4","158.115","162.123","162.817","4.702","0.694","3","30",""
"12","R_31AdUplms9iaYiH","standard","1","12","HP","2","163.819","165.826","166.44","2.621","0.614","3","33",""
"13","R_31AdUplms9iaYiH","standard","1","13","HP","20","167.442","187.452","187.889","20.447","0.437","3","36",""
"14","R_31AdUplms9iaYiH","standard","1","14","HP","20","188.892","208.9","209.521","20.629","0.621","3","39",""
"15","R_31AdUplms9iaYiH","standard","1","15","HP","10","210.524","220.532","NA","11.016","NA","0","39",""
"16","R_31AdUplms9iaYiH","standard","1","16","HP","20","222.544","242.547","243.136","20.592","0.589","3","42",""
"17","R_31AdUplms9iaYiH","standard","1","17","HP","20","244.14","264.148","264.809","20.669","0.661","3","45",""
"18","R_31AdUplms9iaYiH","standard","1","18","HP","14","265.813","279.813","280.384","14.571","0.571","3","48",""
"19","R_31AdUplms9iaYiH","standard","1","19","HP","6","281.389","287.397","287.872","6.483","0.475","3","51",""
"20","R_31AdUplms9iaYiH","standard","1","20","HP","18","288.876","306.886","307.431","18.555","0.545","3","54",""
"21","R_31AdUplms9iaYiH","standard","1","21","HP","4","308.438","312.446","312.952","4.514","0.506","3","57",""
"22","R_31AdUplms9iaYiH","standard","1","22","HP","16","313.958","329.966","330.4","16.442","0.434","3","60",""
"23","R_31AdUplms9iaYiH","standard","1","23","HP","8","331.406","339.414","339.808","8.402","0.394","3","63",""
"24","R_31AdUplms9iaYiH","standard","1","24","HP","4","340.814","344.819","NA","5.008","NA","0","63",""
"25","R_31AdUplms9iaYiH","standard","1","25","HP","6","346.83","352.832","NA","7.009","NA","0","60","546"
"26","R_31AdUplms9iaYiH","standard","1","26","HP","6","354.846","360.854","361.52","6.674","0.666","3","63",""
"27","R_31AdUplms9iaYiH","standard","1","27","HP","12","362.526","374.535","375.328","12.802","0.793","3","66",""
"28","R_31AdUplms9iaYiH","standard","1","28","HP","14","376.335","390.343","391.008","14.673","0.665","3","69",""
"29","R_31AdUplms9iaYiH","standard","1","29","HP","16","392.016","408.019","408.551","16.535","0.532","3","72",""
"30","R_31AdUplms9iaYiH","standard","1","30","HP","18","409.559","427.568","428.016","18.457","0.448","3","72","14352"
"31","R_31AdUplms9iaYiH","standard","1","31","HP","20","429.026","449.032","449.647","20.621","0.615","3","75",""
"32","R_31AdUplms9iaYiH","standard","1","32","HP","16","450.655","466.664","NA","17.208","NA","0","75",""
"33","R_31AdUplms9iaYiH","standard","1","33","HP","18","469.856","487.867","488.527","18.671","0.66","3","78",""
"34","R_31AdUplms9iaYiH","standard","1","34","HP","14","489.529","503.536","NA","15.016","NA","0","78",""
"35","R_31AdUplms9iaYiH","standard","1","35","HP","18","505.553","523.56","524.151","18.598","0.591","3","81",""
"36","R_31AdUplms9iaYiH","standard","1","36","HP","18","525.152","543.161","543.75","18.598","0.589","3","84",""
"37","R_31AdUplms9iaYiH","standard","1","37","HP","16","544.754","560.761","561.334","16.58","0.573","3","87",""
"38","R_31AdUplms9iaYiH","standard","1","38","HP","16","562.337","578.345","578.878","16.541","0.533","3","90",""
"39","R_31AdUplms9iaYiH","standard","1","39","HP","10","579.881","589.884","590.358","10.477","0.474","3","93",""
"40","R_31AdUplms9iaYiH","standard","1","40","HP","6","591.361","597.369","597.941","6.58","0.572","3","96",""
"41","R_31AdUplms9iaYiH","standard","1","41","HP","16","598.945","614.955","615.575","16.63","0.62","3","99",""
"42","R_31AdUplms9iaYiH","standard","1","42","HP","20","616.578","636.587","637.175","20.597","0.588","3","102",""
"43","R_31AdUplms9iaYiH","standard","1","43","HP","6","638.188","644.194","644.846","6.658","0.652","3","105",""
"44","R_31AdUplms9iaYiH","standard","1","44","HP","4","645.851","649.853","650.662","4.811","0.809","3","108",""
"45","R_31AdUplms9iaYiH","standard","1","45","HP","14","651.667","665.669","666.231","14.564","0.562","3","111",""
"46","R_31AdUplms9iaYiH","standard","1","46","HP","4","667.234","671.236","671.893","4.659","0.657","3","114",""
"47","R_31AdUplms9iaYiH","standard","1","47","HP","8","672.899","680.907","681.493","8.594","0.586","3","117",""
"48","R_31AdUplms9iaYiH","standard","1","48","HP","16","682.499","698.507","699.157","16.658","0.65","3","120",""
"49","R_31AdUplms9iaYiH","standard","1","49","HP","10","700.163","710.17","710.733","10.57","0.563","3","123",""
"50","R_31AdUplms9iaYiH","standard","1","50","HP","18","711.738","729.749","730.27","18.532","0.521","3","126",""
"51","R_31AdUplms9iaYiH","standard","1","51","HP","18","731.271","749.277","749.966","18.695","0.689","3","129",""
"52","R_31AdUplms9iaYiH","standard","1","52","HP","6","750.973","756.981","757.669","6.696","0.688","3","132",""
"53","R_31AdUplms9iaYiH","standard","1","53","HP","16","758.676","774.685","775.157","16.481","0.472","3","135",""
"54","R_31AdUplms9iaYiH","standard","1","54","HP","6","776.165","782.171","782.788","6.623","0.617","3","138",""
"55","R_31AdUplms9iaYiH","standard","1","55","HP","4","783.796","787.805","788.326","4.53","0.521","3","141",""
"56","R_31AdUplms9iaYiH","standard","1","56","HP","14","789.333","803.341","804.013","14.68","0.672","3","144",""
"57","R_31AdUplms9iaYiH","standard","1","57","HP","16","805.021","821.032","821.549","16.528","0.517","3","147",""
"58","R_31AdUplms9iaYiH","standard","1","58","HP","16","822.557","838.565","839.053","16.496","0.488","3","150",""
"59","R_31AdUplms9iaYiH","standard","1","59","HP","6","840.061","846.071","846.725","6.664","0.654","3","153",""
"60","R_31AdUplms9iaYiH","standard","1","60","HP","4","847.727","851.734","852.349","4.622","0.615","3","156",""
"61","R_31AdUplms9iaYiH","standard","1","61","HP","12","853.35","865.358","865.885","12.535","0.527","3","159",""
"62","R_31AdUplms9iaYiH","standard","1","62","HP","2","866.887","868.891","869.74","2.853","0.849","3","162",""
"63","R_31AdUplms9iaYiH","standard","1","63","HP","4","870.743","874.746","875.372","4.629","0.626","3","165",""
"64","R_31AdUplms9iaYiH","standard","1","64","HP","10","876.374","886.377","887.028","10.654","0.651","3","168",""
"65","R_31AdUplms9iaYiH","standard","2","1","LP","13.0392072382594","0.001","NaN","2.045","2.044","NaN","0","168",NA
"66","R_31AdUplms9iaYiH","standard","2","2","LP","2.15079707022835","3.049","NaN","5.101","2.052","NaN","0","168",NA
"67","R_31AdUplms9iaYiH","standard","2","3","LP","8.51632916846187","6.105","NaN","8.077","1.972","NaN","0","168",NA
"68","R_31AdUplms9iaYiH","standard","2","4","LP","30","9.081","NaN","14.213","5.132","NaN","0","168",NA
"69","R_31AdUplms9iaYiH","standard","2","5","LP","3.49090909090909","15.213","18.705","19.278","4.065","0.573","3","171",NA
"70","R_31AdUplms9iaYiH","standard","2","6","LP","19.8235243429556","20.28","NaN","25.653","5.373","NaN","0","171",NA
"71","R_31AdUplms9iaYiH","standard","2","7","LP","8.51632916846187","26.656","NaN","29.973","3.317","NaN","0","171",NA
"72","R_31AdUplms9iaYiH","standard","2","8","LP","19.8235243429556","30.994","NaN","32.778","1.784","NaN","0","171",NA
"73","R_31AdUplms9iaYiH","standard","2","9","LP","0.264713485566566","33.788","34.061","34.692","0.904","0.631","3","174",NA
"74","R_31AdUplms9iaYiH","standard","2","10","LP","3.49090909090909","35.737","NaN","36.209","0.472","NaN","0","174",NA
"75","R_31AdUplms9iaYiH","standard","2","11","LP","8.51632916846187","37.21","NaN","38.399","1.189","NaN","0","174",NA
"76","R_31AdUplms9iaYiH","standard","2","12","LP","8.51632916846187","39.402","NaN","40.757","1.355","NaN","0","174",NA
"77","R_31AdUplms9iaYiH","standard","2","13","LP","0.264713485566566","41.774","42.042","42.537","0.763","0.495","3","177",NA
"78","R_31AdUplms9iaYiH","standard","2","14","LP","1.25738905644119","43.553","NaN","44.135","0.582","NaN","0","177",NA
"79","R_31AdUplms9iaYiH","standard","2","15","LP","8.51632916846187","45.138","NaN","46.374","1.236","NaN","0","177",NA
"80","R_31AdUplms9iaYiH","standard","2","16","LP","1.25738905644119","47.378","NaN","48.429","1.051","NaN","0","177",NA
"81","R_31AdUplms9iaYiH","standard","2","17","LP","13.0392072382594","49.434","NaN","50.485","1.051","NaN","0","177",NA
"82","R_31AdUplms9iaYiH","standard","2","18","LP","3.49090909090909","51.491","NaN","52.462","0.971","NaN","0","177",NA
"83","R_31AdUplms9iaYiH","standard","2","19","LP","2.15079707022835","53.466","NaN","54.901","1.435","NaN","0","177",NA
"84","R_31AdUplms9iaYiH","standard","2","20","LP","30","55.906","NaN","57.365","1.459","NaN","0","177",NA
"85","R_31AdUplms9iaYiH","standard","2","21","LP","3.49090909090909","58.37","NaN","59.805","1.435","NaN","0","177",NA
"86","R_31AdUplms9iaYiH","standard","2","22","LP","19.8235243429556","60.81","NaN","62.229","1.419","NaN","0","177",NA
"87","R_31AdUplms9iaYiH","standard","2","23","LP","5.5010771219302","63.234","NaN","64.494","1.26","NaN","0","177",NA
"88","R_31AdUplms9iaYiH","standard","2","24","LP","19.8235243429556","65.498","NaN","67.189","1.691","NaN","0","177",NA
"89","R_31AdUplms9iaYiH","standard","2","25","LP","0.661783713916415","68.194","68.858","69.421","1.227","0.563","3","180",NA
"90","R_31AdUplms9iaYiH","standard","2","26","LP","2.15079707022835","70.425","NaN","71.557","1.132","NaN","0","180",NA
"91","R_31AdUplms9iaYiH","standard","2","27","LP","19.8235243429556","72.562","NaN","73.845","1.283","NaN","0","180",NA
"92","R_31AdUplms9iaYiH","standard","2","28","LP","5.5010771219302","74.85","NaN","76.221","1.371","NaN","0","180",NA
"93","R_31AdUplms9iaYiH","standard","2","29","LP","5.5010771219302","77.225","NaN","78.669","1.444","NaN","0","180",NA
"94","R_31AdUplms9iaYiH","standard","2","30","LP","0.264713485566566","79.674","79.942","80.477","0.803","0.535","3","183",NA
"95","R_31AdUplms9iaYiH","standard","2","31","LP","19.8235243429556","81.482","NaN","82.077","0.595","NaN","0","183",NA
"96","R_31AdUplms9iaYiH","standard","2","32","LP","0.264713485566566","83.081","83.353","83.773","0.692","0.42","3","186",NA
"97","R_31AdUplms9iaYiH","standard","2","33","LP","8.51632916846187","84.778","NaN","85.237","0.459","NaN","0","186",NA
"98","R_31AdUplms9iaYiH","standard","2","34","LP","8.51632916846187","86.241","NaN","87.413","1.172","NaN","0","186",NA
"99","R_31AdUplms9iaYiH","standard","2","35","LP","0.661783713916415","88.415","89.082","89.532","1.117","0.45","3","189",NA
"100","R_31AdUplms9iaYiH","standard","2","36","LP","0.661783713916415","90.538","91.202","91.814","1.276","0.612","3","192",NA
"101","R_31AdUplms9iaYiH","standard","2","37","LP","0.661783713916415","92.816","93.483","93.894","1.078","0.411","3","195",NA
"102","R_31AdUplms9iaYiH","standard","2","38","LP","5.5010771219302","94.899","NaN","96.798","1.899","NaN","0","195",NA
"103","R_31AdUplms9iaYiH","standard","2","39","LP","1.25738905644119","97.803","99.06","99.478","1.675","0.418","3","198",NA
"104","R_31AdUplms9iaYiH","standard","2","40","LP","5.5010771219302","100.483","NaN","103.005","2.522","NaN","0","198",NA
"105","R_31AdUplms9iaYiH","standard","2","41","LP","0.661783713916415","104.012","104.675","105.141","1.129","0.466","3","201",NA
"106","R_31AdUplms9iaYiH","standard","2","42","LP","0.264713485566566","106.142","106.411","106.893","0.751","0.482","3","204",NA
"107","R_31AdUplms9iaYiH","standard","2","43","LP","1.25738905644119","107.898","109.163","109.518","1.62","0.355","3","207",NA
"108","R_31AdUplms9iaYiH","standard","2","44","LP","5.5010771219302","110.523","NaN","113.725","3.202","NaN","0","207",NA
"109","R_31AdUplms9iaYiH","standard","2","45","LP","13.0392072382594","114.727","NaN","116.813","2.086","NaN","0","207",NA
"110","R_31AdUplms9iaYiH","standard","2","46","LP","5.5010771219302","117.816","NaN","120.389","2.573","NaN","0","207",NA
"111","R_31AdUplms9iaYiH","standard","2","47","LP","8.51632916846187","121.395","NaN","123.141","1.746","NaN","0","207",NA
"112","R_31AdUplms9iaYiH","standard","2","48","LP","5.5010771219302","124.142","NaN","126.061","1.919","NaN","0","207",NA
"113","R_31AdUplms9iaYiH","standard","2","49","LP","30","127.067","NaN","129.501","2.434","NaN","0","207",NA
"114","R_31AdUplms9iaYiH","standard","2","50","LP","2.15079707022835","130.506","NaN","132.413","1.907","NaN","0","207",NA
"115","R_31AdUplms9iaYiH","standard","2","51","LP","2.15079707022835","133.416","NaN","134.845","1.429","NaN","0","207",NA
"116","R_31AdUplms9iaYiH","standard","2","52","LP","2.15079707022835","135.851","138.003","138.221","2.37","0.218","3","210",NA
"117","R_31AdUplms9iaYiH","standard","2","53","LP","0.661783713916415","139.227","139.891","140.381","1.154","0.49","3","213",NA
"118","R_31AdUplms9iaYiH","standard","2","54","LP","19.8235243429556","141.387","NaN","143.517","2.13","NaN","0","213",NA
"119","R_31AdUplms9iaYiH","standard","2","55","LP","5.5010771219302","144.523","NaN","147.052","2.529","NaN","0","213",NA
"120","R_31AdUplms9iaYiH","standard","2","56","LP","0.661783713916415","148.058","148.723","149.22","1.162","0.497","3","216",NA
"121","R_31AdUplms9iaYiH","standard","2","57","LP","3.49090909090909","150.227","153.723","154.077","3.85","0.354","3","219",NA
"122","R_31AdUplms9iaYiH","standard","2","58","LP","30","155.083","NaN","160.628","5.545","NaN","0","219",NA
"123","R_31AdUplms9iaYiH","standard","2","59","LP","3.49090909090909","161.635","NaN","163.196","1.561","NaN","0","219",NA
"124","R_31AdUplms9iaYiH","standard","2","60","LP","13.0392072382594","164.203","NaN","166.701","2.498","NaN","0","219",NA
"125","R_31AdUplms9iaYiH","standard","2","61","LP","0.661783713916415","167.707","168.372","168.988","1.281","0.616","3","222",NA
"126","R_31AdUplms9iaYiH","standard","2","62","LP","30","169.995","NaN","171.972","1.977","NaN","0","222",NA
"127","R_31AdUplms9iaYiH","standard","2","63","LP","1.25738905644119","172.979","174.243","174.732","1.753","0.489","3","225",NA
"128","R_31AdUplms9iaYiH","standard","2","64","LP","0.661783713916415","175.74","176.404","176.988","1.248","0.584","3","228",NA
"129","R_31AdUplms9iaYiH","standard","2","65","LP","2.15079707022835","177.995","NaN","180.036","2.041","NaN","0","228",NA
"130","R_31AdUplms9iaYiH","standard","2","66","LP","0.661783713916415","181.043","181.707","182.172","1.129","0.465","3","231",NA
"131","R_31AdUplms9iaYiH","standard","2","67","LP","1.25738905644119","183.179","184.443","184.956","1.777","0.513","3","234",NA
"132","R_31AdUplms9iaYiH","standard","2","68","LP","0.661783713916415","185.963","186.627","187.116","1.153","0.489","3","237",NA
"133","R_31AdUplms9iaYiH","standard","2","69","LP","19.8235243429556","188.123","NaN","191.028","2.905","NaN","0","237",NA
"134","R_31AdUplms9iaYiH","standard","2","70","LP","8.51632916846187","192.035","NaN","195.156","3.121","NaN","0","237",NA
"135","R_31AdUplms9iaYiH","standard","2","71","LP","5.5010771219302","196.163","NaN","198.628","2.465","NaN","0","237",NA
"136","R_31AdUplms9iaYiH","standard","2","72","LP","13.0392072382594","199.636","NaN","201.83","2.194","NaN","0","237",NA
"137","R_31AdUplms9iaYiH","standard","2","73","LP","5.5010771219302","202.835","NaN","205.308","2.473","NaN","0","237",NA
"138","R_31AdUplms9iaYiH","standard","2","74","LP","3.49090909090909","206.312","NaN","208.011","1.699","NaN","0","237",NA
"139","R_31AdUplms9iaYiH","standard","2","75","LP","1.25738905644119","209.016","210.275","210.74","1.724","0.465","3","240",NA
"140","R_31AdUplms9iaYiH","standard","2","76","LP","13.0392072382594","211.747","NaN","214.22","2.473","NaN","0","240",NA
"141","R_31AdUplms9iaYiH","standard","2","77","LP","19.8235243429556","215.228","NaN","218.604","3.376","NaN","0","240",NA
"142","R_31AdUplms9iaYiH","standard","2","78","LP","5.5010771219302","219.612","NaN","222.588","2.976","NaN","0","240",NA
"143","R_31AdUplms9iaYiH","standard","2","79","LP","3.49090909090909","223.596","227.092","227.516","3.92","0.424","3","243",NA
"144","R_31AdUplms9iaYiH","standard","2","80","LP","19.8235243429556","228.524","NaN","230.748","2.224","NaN","0","243",NA
"145","R_31AdUplms9iaYiH","standard","2","81","LP","0.661783713916415","231.775","232.444","233.052","1.277","0.608","3","246",NA
"146","R_31AdUplms9iaYiH","standard","2","82","LP","1.25738905644119","234.06","235.324","235.876","1.816","0.552","3","249",NA
"147","R_31AdUplms9iaYiH","standard","2","83","LP","8.51632916846187","236.884","NaN","238.939","2.055","NaN","0","249",NA
"148","R_31AdUplms9iaYiH","standard","2","84","LP","1.25738905644119","239.949","241.212","241.727","1.778","0.515","3","252",NA
"149","R_31AdUplms9iaYiH","standard","2","85","LP","0.661783713916415","242.732","243.396","243.876","1.144","0.48","3","255",NA
"150","R_31AdUplms9iaYiH","standard","2","86","LP","8.51632916846187","244.884","NaN","247.563","2.679","NaN","0","255",NA
"151","R_31AdUplms9iaYiH","standard","2","87","LP","5.5010771219302","248.571","NaN","250.739","2.168","NaN","0","255",NA
"152","R_31AdUplms9iaYiH","standard","2","88","LP","0.264713485566566","251.748","252.013","252.523","0.775","0.51","3","258",NA
"153","R_31AdUplms9iaYiH","standard","2","89","LP","2.15079707022835","253.524","255.676","256.142","2.618","0.466","3","261",NA
"154","R_31AdUplms9iaYiH","standard","2","90","LP","19.8235243429556","257.148","NaN","260.141","2.993","NaN","0","261",NA
"155","R_31AdUplms9iaYiH","standard","2","91","LP","5.5010771219302","261.145","NaN","262.931","1.786","NaN","0","261",NA
"156","R_31AdUplms9iaYiH","standard","2","92","LP","19.8235243429556","263.932","NaN","266.275","2.343","NaN","0","261",NA
"157","R_31AdUplms9iaYiH","standard","2","93","LP","0.264713485566566","267.284","267.557","268.141","0.857","0.584","3","264",NA
"158","R_31AdUplms9iaYiH","standard","2","94","LP","8.51632916846187","269.146","NaN","271.251","2.105","NaN","0","264",NA
"159","R_31AdUplms9iaYiH","standard","2","95","LP","8.51632916846187","272.252","NaN","275.868","3.616","NaN","0","264",NA
"160","R_31AdUplms9iaYiH","standard","2","96","LP","0.264713485566566","276.869","277.141","277.644","0.775","0.503","3","267",NA
"161","R_31AdUplms9iaYiH","standard","2","97","LP","0.661783713916415","278.653","279.317","279.923","1.27","0.606","3","270",NA
"162","R_31AdUplms9iaYiH","standard","2","98","LP","30","280.925","NaN","285.504","4.579","NaN","0","270",NA
"163","R_31AdUplms9iaYiH","standard","2","99","LP","0.661783713916415","286.509","287.173","287.592","1.083","0.419","3","273",NA
"164","R_31AdUplms9iaYiH","standard","2","100","LP","5.5010771219302","288.598","NaN","292.516","3.918","NaN","0","273",NA
"165","R_31AdUplms9iaYiH","standard","2","101","LP","0.661783713916415","293.517","294.208","294.827","1.31","0.619","3","276",NA
"166","R_31AdUplms9iaYiH","standard","2","102","LP","19.8235243429556","295.828","NaN","300.091","4.263","NaN","0","276",NA
"167","R_31AdUplms9iaYiH","standard","2","103","LP","13.0392072382594","301.093","NaN","304.299","3.206","NaN","0","276",NA
"168","R_31AdUplms9iaYiH","standard","2","104","LP","30","305.301","NaN","307.971","2.67","NaN","0","276",NA
"169","R_31AdUplms9iaYiH","standard","2","105","LP","1.25738905644119","308.973","310.237","310.771","1.798","0.534","3","279",NA
"170","R_31AdUplms9iaYiH","standard","2","106","LP","0.264713485566566","311.773","312.045","312.811","1.038","0.766","3","282",NA
"171","R_31AdUplms9iaYiH","standard","2","107","LP","13.0392072382594","313.813","NaN","316.996","3.183","NaN","0","282",NA
"172","R_31AdUplms9iaYiH","standard","2","108","LP","5.5010771219302","317.997","NaN","319.459","1.462","NaN","0","282",NA
"173","R_31AdUplms9iaYiH","standard","2","109","LP","30","320.461","NaN","322.114","1.653","NaN","0","282",NA
"174","R_31AdUplms9iaYiH","standard","2","110","LP","8.51632916846187","323.117","NaN","324.811","1.694","NaN","0","282",NA
"175","R_31AdUplms9iaYiH","standard","2","111","LP","0.661783713916415","325.813","326.477","326.963","1.15","0.486","3","285",NA
"176","R_31AdUplms9iaYiH","standard","2","112","LP","0.264713485566566","327.965","328.237","328.851","0.886","0.614","3","288",NA
"177","R_31AdUplms9iaYiH","standard","2","113","LP","0.264713485566566","329.853","330.125","330.587","0.734","0.462","3","291",NA
"178","R_31AdUplms9iaYiH","standard","2","114","LP","13.0392072382594","331.589","NaN","332.588","0.999","NaN","0","291",NA
"179","R_31AdUplms9iaYiH","standard","2","115","LP","0.264713485566566","333.59","333.862","334.395","0.805","0.533","3","294",NA
"180","R_31AdUplms9iaYiH","standard","2","116","LP","5.5010771219302","335.398","NaN","336.508","1.11","NaN","0","294",NA
"181","R_31AdUplms9iaYiH","standard","2","117","LP","3.49090909090909","337.511","NaN","338.515","1.004","NaN","0","294",NA
"182","R_31AdUplms9iaYiH","standard","2","118","LP","3.49090909090909","339.516","NaN","340.692","1.176","NaN","0","294",NA
"183","R_31AdUplms9iaYiH","standard","2","119","LP","0.264713485566566","341.695","341.966","342.387","0.692","0.421","3","297",NA
"184","R_31AdUplms9iaYiH","standard","2","120","LP","3.49090909090909","343.39","NaN","345.171","1.781","NaN","0","297",NA
"185","R_31AdUplms9iaYiH","standard","2","121","LP","1.25738905644119","346.173","NaN","346.899","0.726","NaN","0","297",NA
"186","R_31AdUplms9iaYiH","standard","2","122","LP","0.661783713916415","347.902","348.564","348.963","1.061","0.399","3","300",NA
"187","R_31AdUplms9iaYiH","standard","2","123","LP","3.49090909090909","349.966","NaN","351.5","1.534","NaN","0","300",NA
"188","R_31AdUplms9iaYiH","standard","2","124","LP","8.51632916846187","352.502","NaN","353.74","1.238","NaN","0","300",NA
"189","R_31AdUplms9iaYiH","standard","2","125","LP","19.8235243429556","354.742","NaN","355.859","1.117","NaN","0","300",NA
"190","R_31AdUplms9iaYiH","standard","2","126","LP","13.0392072382594","356.862","NaN","358.363","1.501","NaN","0","300",NA
"191","R_31AdUplms9iaYiH","standard","2","127","LP","13.0392072382594","359.366","NaN","360.539","1.173","NaN","0","300",NA
"192","R_31AdUplms9iaYiH","standard","2","128","LP","0.661783713916415","361.542","362.206","362.635","1.093","0.429","3","303",NA
"193","R_31AdUplms9iaYiH","standard","2","129","LP","3.49090909090909","363.666","NaN","365.139","1.473","NaN","0","303",NA
"194","R_31AdUplms9iaYiH","standard","2","130","LP","3.49090909090909","366.142","NaN","367.971","1.829","NaN","0","303",NA
"195","R_31AdUplms9iaYiH","standard","2","131","LP","13.0392072382594","368.974","NaN","370.523","1.549","NaN","0","303",NA
"196","R_31AdUplms9iaYiH","standard","2","132","LP","5.5010771219302","371.526","NaN","373.451","1.925","NaN","0","303",NA
"197","R_31AdUplms9iaYiH","standard","2","133","LP","3.49090909090909","374.454","NaN","375.507","1.053","NaN","0","303",NA
"198","R_31AdUplms9iaYiH","standard","2","134","LP","3.49090909090909","376.51","NaN","377.58","1.07","NaN","0","303",NA
"199","R_31AdUplms9iaYiH","standard","2","135","LP","0.661783713916415","378.582","379.246","379.746","1.164","0.5","3","306",NA
"200","R_31AdUplms9iaYiH","standard","2","136","LP","19.8235243429556","380.75","NaN","381.738","0.988","NaN","0","306",NA
"201","R_31AdUplms9iaYiH","standard","2","137","LP","0.661783713916415","382.742","383.406","383.627","0.885","0.221","3","309",NA
"202","R_31AdUplms9iaYiH","standard","2","138","LP","8.51632916846187","384.63","NaN","387.322","2.692","NaN","0","309",NA
"203","R_31AdUplms9iaYiH","standard","2","139","LP","3.49090909090909","388.326","NaN","389.926","1.6","NaN","0","309",NA
"204","R_31AdUplms9iaYiH","standard","2","140","LP","30","390.934","NaN","391.907","0.973","NaN","0","309",NA
"205","R_31AdUplms9iaYiH","standard","2","141","LP","8.51632916846187","392.911","NaN","393.86","0.949","NaN","0","309",NA
"206","R_31AdUplms9iaYiH","standard","2","142","LP","0.661783713916415","394.863","395.527","395.771","0.908","0.244","3","312",NA
"207","R_31AdUplms9iaYiH","standard","2","143","LP","13.0392072382594","396.775","NaN","398.267","1.492","NaN","0","312",NA
"208","R_31AdUplms9iaYiH","standard","2","144","LP","5.5010771219302","399.271","NaN","400.58","1.309","NaN","0","312",NA
"209","R_31AdUplms9iaYiH","standard","2","145","LP","5.5010771219302","401.583","NaN","402.747","1.164","NaN","0","312",NA
"210","R_31AdUplms9iaYiH","standard","2","146","LP","3.49090909090909","403.752","NaN","404.86","1.108","NaN","0","312",NA
"211","R_31AdUplms9iaYiH","standard","2","147","LP","2.15079707022835","405.863","408.016","408.131","2.268","0.115","3","315",NA
"212","R_31AdUplms9iaYiH","standard","2","148","LP","8.51632916846187","409.136","NaN","411.051","1.915","NaN","0","315",NA
"213","R_31AdUplms9iaYiH","standard","2","149","LP","13.0392072382594","412.055","NaN","414.011","1.956","NaN","0","315",NA
"214","R_31AdUplms9iaYiH","standard","2","150","LP","0.264713485566566","415.017","415.283","415.771","0.754","0.488","3","318",NA
"215","R_31AdUplms9iaYiH","standard","2","151","LP","30","416.775","NaN","419.342","2.567","NaN","0","318",NA
"216","R_31AdUplms9iaYiH","standard","2","152","LP","8.51632916846187","420.343","NaN","421.523","1.18","NaN","0","318",NA
"217","R_31AdUplms9iaYiH","standard","2","153","LP","8.51632916846187","422.527","NaN","424.698","2.171","NaN","0","318",NA
"218","R_31AdUplms9iaYiH","standard","2","154","LP","5.5010771219302","425.703","NaN","426.212","0.509","NaN","0","318",NA
"219","R_31AdUplms9iaYiH","standard","2","155","LP","5.5010771219302","427.218","NaN","428.602","1.384","NaN","0","318",NA
"220","R_31AdUplms9iaYiH","standard","2","156","LP","1.25738905644119","429.607","430.871","430.914","1.307","0.043","3","321",NA
"221","R_31AdUplms9iaYiH","standard","2","157","LP","0.264713485566566","431.916","432.183","432.666","0.75","0.483","3","324",NA
"222","R_31AdUplms9iaYiH","standard","2","158","LP","8.51632916846187","433.671","NaN","435.194","1.523","NaN","0","324",NA
"223","R_31AdUplms9iaYiH","standard","2","159","LP","0.661783713916415","436.199","436.863","437.283","1.084","0.42","3","327",NA
"224","R_31AdUplms9iaYiH","standard","2","160","LP","3.49090909090909","438.287","NaN","441.346","3.059","NaN","0","327",NA
"225","R_31AdUplms9iaYiH","standard","2","161","LP","5.5010771219302","442.349","NaN","442.986","0.637","NaN","0","327",NA
"226","R_31AdUplms9iaYiH","standard","2","162","LP","1.25738905644119","443.991","445.255","445.314","1.323","0.059","3","330",NA
"227","R_31AdUplms9iaYiH","standard","2","163","LP","2.15079707022835","446.316","NaN","447.939","1.623","NaN","0","330",NA
"228","R_31AdUplms9iaYiH","standard","2","164","LP","1.25738905644119","448.943","450.207","450.674","1.731","0.467","3","333",NA
"229","R_31AdUplms9iaYiH","standard","2","165","LP","0.264713485566566","451.679","451.949","452.475","0.796","0.526","3","336",NA
"230","R_31AdUplms9iaYiH","standard","2","166","LP","8.51632916846187","453.48","NaN","455.362","1.882","NaN","0","336",NA
"231","R_31AdUplms9iaYiH","standard","2","167","LP","13.0392072382594","456.368","NaN","457.642","1.274","NaN","0","336",NA
"232","R_31AdUplms9iaYiH","standard","2","168","LP","0.661783713916415","458.649","459.312","459.731","1.082","0.419","3","339",NA
"233","R_31AdUplms9iaYiH","standard","2","169","LP","30","460.735","NaN","464.81","4.075","NaN","0","339",NA
"234","R_31AdUplms9iaYiH","standard","2","170","LP","2.15079707022835","465.816","NaN","467.418","1.602","NaN","0","339",NA
"235","R_31AdUplms9iaYiH","standard","2","171","LP","0.661783713916415","468.42","469.088","469.626","1.206","0.538","3","342",NA
"236","R_31AdUplms9iaYiH","standard","2","172","LP","0.264713485566566","470.632","470.904","471.322","0.69","0.418","3","345",NA
"237","R_31AdUplms9iaYiH","standard","2","173","LP","0.661783713916415","472.328","472.992","473.506","1.178","0.514","3","348",NA
"238","R_31AdUplms9iaYiH","standard","2","174","LP","2.15079707022835","474.512","NaN","476.098","1.586","NaN","0","348",NA
"239","R_31AdUplms9iaYiH","standard","2","175","LP","19.8235243429556","477.104","NaN","478.042","0.938","NaN","0","348",NA
"240","R_31AdUplms9iaYiH","standard","2","176","LP","0.264713485566566","479.048","479.317","479.698","0.65","0.381","3","351",NA
"241","R_31AdUplms9iaYiH","standard","2","177","LP","19.8235243429556","480.704","NaN","481.379","0.675","NaN","0","351",NA
"242","R_31AdUplms9iaYiH","standard","2","178","LP","0.264713485566566","482.383","482.667","483.09","0.707","0.423","3","354",NA
"243","R_31AdUplms9iaYiH","standard","2","179","LP","30","484.096","NaN","484.97","0.874","NaN","0","354",NA
"244","R_31AdUplms9iaYiH","standard","2","180","LP","0.264713485566566","485.975","486.247","486.698","0.723","0.451","3","357",NA
"245","R_31AdUplms9iaYiH","standard","2","181","LP","2.15079707022835","487.703","NaN","488.106","0.403","NaN","0","357",NA
"246","R_31AdUplms9iaYiH","standard","2","182","LP","3.49090909090909","489.111","NaN","489.641","0.53","NaN","0","357",NA
"247","R_31AdUplms9iaYiH","standard","2","183","LP","3.49090909090909","490.658","NaN","491.474","0.816","NaN","0","357",NA
"248","R_31AdUplms9iaYiH","standard","2","184","LP","19.8235243429556","492.48","NaN","493.361","0.881","NaN","0","357",NA
"249","R_31AdUplms9iaYiH","standard","2","185","LP","13.0392072382594","494.368","NaN","495.578","1.21","NaN","0","357",NA
"250","R_31AdUplms9iaYiH","standard","2","186","LP","0.264713485566566","496.584","496.856","497.258","0.674","0.402","3","360",NA
"251","R_31AdUplms9iaYiH","standard","2","187","LP","1.25738905644119","498.264","NaN","499.258","0.994","NaN","0","360",NA
"252","R_31AdUplms9iaYiH","standard","2","188","LP","1.25738905644119","500.264","NaN","501.345","1.081","NaN","0","360",NA
"253","R_31AdUplms9iaYiH","standard","2","189","LP","5.5010771219302","502.352","NaN","503.098","0.746","NaN","0","360",NA
"254","R_31AdUplms9iaYiH","standard","2","190","LP","0.661783713916415","504.104","NaN","504.53","0.426","NaN","0","360",NA
"255","R_31AdUplms9iaYiH","standard","2","191","LP","19.8235243429556","505.536","NaN","506.017","0.481","NaN","0","360",NA
"256","R_31AdUplms9iaYiH","standard","2","192","LP","3.49090909090909","507.02","NaN","508.193","1.173","NaN","0","360",NA
"257","R_31AdUplms9iaYiH","standard","2","193","LP","13.0392072382594","509.199","NaN","509.929","0.73","NaN","0","360",NA
"258","R_31AdUplms9iaYiH","standard","2","194","LP","3.49090909090909","510.934","NaN","511.457","0.523","NaN","0","360",NA
"259","R_31AdUplms9iaYiH","standard","2","195","LP","0.264713485566566","512.465","512.737","512.995","0.53","0.258","3","363",NA
"260","R_31AdUplms9iaYiH","standard","2","196","LP","19.8235243429556","514.001","NaN","515.219","1.218","NaN","0","363",NA
"261","R_31AdUplms9iaYiH","standard","2","197","LP","0.661783713916415","516.222","516.884","517.203","0.981","0.319","3","366",NA
"262","R_31AdUplms9iaYiH","standard","2","198","LP","0.264713485566566","518.209","518.481","518.907","0.698","0.426","3","369",NA
"263","R_31AdUplms9iaYiH","standard","2","199","LP","13.0392072382594","519.913","NaN","522.25","2.337","NaN","0","369",NA
"264","R_31AdUplms9iaYiH","standard","2","200","LP","19.8235243429556","523.257","NaN","523.986","0.729","NaN","0","369",NA
"265","R_31AdUplms9iaYiH","standard","2","201","LP","2.15079707022835","524.993","NaN","525.443","0.45","NaN","0","369",NA
"266","R_31AdUplms9iaYiH","standard","2","202","LP","3.49090909090909","526.449","NaN","527.338","0.889","NaN","0","369",NA
"267","R_31AdUplms9iaYiH","standard","2","203","LP","3.49090909090909","528.346","NaN","529.522","1.176","NaN","0","369",NA
"268","R_31AdUplms9iaYiH","standard","2","204","LP","19.8235243429556","530.523","NaN","531.266","0.743","NaN","0","369",NA
"269","R_31AdUplms9iaYiH","standard","2","205","LP","5.5010771219302","532.273","NaN","533.97","1.697","NaN","0","369",NA
"270","R_31AdUplms9iaYiH","standard","2","206","LP","0.264713485566566","534.977","535.249","535.723","0.746","0.474","3","372",NA
"271","R_31AdUplms9iaYiH","standard","2","207","LP","5.5010771219302","536.729","NaN","537.819","1.09","NaN","0","372",NA
"272","R_31AdUplms9iaYiH","standard","2","208","LP","0.661783713916415","538.822","539.489","539.922","1.1","0.433","3","375",NA
"273","R_31AdUplms9iaYiH","standard","2","209","LP","0.264713485566566","540.929","541.201","541.626","0.697","0.425","3","378",NA
"274","R_31AdUplms9iaYiH","standard","2","210","LP","2.15079707022835","542.633","NaN","543.706","1.073","NaN","0","378",NA
"275","R_31AdUplms9iaYiH","standard","2","211","LP","30","544.713","NaN","545.722","1.009","NaN","0","378",NA
"276","R_31AdUplms9iaYiH","standard","2","212","LP","3.49090909090909","546.729","NaN","547.386","0.657","NaN","0","378",NA
"277","R_31AdUplms9iaYiH","standard","2","213","LP","8.51632916846187","548.393","NaN","549.082","0.689","NaN","0","378",NA
"278","R_31AdUplms9iaYiH","standard","2","214","LP","3.49090909090909","550.089","NaN","551.17","1.081","NaN","0","378",NA
"279","R_31AdUplms9iaYiH","standard","2","215","LP","19.8235243429556","552.178","NaN","553.026","0.848","NaN","0","378",NA
"280","R_31AdUplms9iaYiH","standard","2","216","LP","0.661783713916415","554.033","554.697","554.738","0.705","0.041","3","381",NA
"281","R_31AdUplms9iaYiH","standard","2","217","LP","1.25738905644119","555.745","NaN","556.994","1.249","NaN","0","381",NA
"282","R_31AdUplms9iaYiH","standard","2","218","LP","13.0392072382594","558.001","NaN","559.442","1.441","NaN","0","381",NA
"283","R_31AdUplms9iaYiH","standard","2","219","LP","5.5010771219302","560.449","NaN","561.57","1.121","NaN","0","381",NA
"284","R_31AdUplms9iaYiH","standard","2","220","LP","0.661783713916415","562.581","563.249","563.498","0.917","0.249","3","384",NA
"285","R_31AdUplms9iaYiH","standard","2","221","LP","8.51632916846187","564.505","NaN","567.057","2.552","NaN","0","384",NA
"286","R_31AdUplms9iaYiH","standard","2","222","LP","13.0392072382594","568.065","NaN","568.803","0.738","NaN","0","384",NA
"287","R_31AdUplms9iaYiH","standard","2","223","LP","8.51632916846187","569.81","NaN","570.666","0.856","NaN","0","384",NA
"288","R_31AdUplms9iaYiH","standard","2","224","LP","0.264713485566566","571.669","571.938","572.531","0.862","0.593","3","387",NA
"289","R_31AdUplms9iaYiH","standard","2","225","LP","5.5010771219302","573.539","NaN","574.946","1.407","NaN","0","387",NA
"290","R_31AdUplms9iaYiH","standard","2","226","LP","13.0392072382594","575.955","NaN","576.652","0.697","NaN","0","387",NA
"291","R_31AdUplms9iaYiH","standard","2","227","LP","1.25738905644119","577.658","NaN","578.051","0.393","NaN","0","387",NA
"292","R_31AdUplms9iaYiH","standard","2","228","LP","0.661783713916415","579.058","NaN","579.61","0.552","NaN","0","387",NA
"293","R_31AdUplms9iaYiH","standard","2","229","LP","0.661783713916415","580.621","NaN","581.259","0.638","NaN","0","387",NA
"294","R_31AdUplms9iaYiH","standard","2","230","LP","19.8235243429556","582.266","NaN","583.298","1.032","NaN","0","387",NA
"295","R_31AdUplms9iaYiH","standard","2","231","LP","0.661783713916415","584.306","584.97","585.026","0.72","0.056","3","390",NA
"296","R_31AdUplms9iaYiH","standard","2","232","LP","0.264713485566566","586.034","586.306","586.738","0.704","0.432","3","393",NA
"297","R_31AdUplms9iaYiH","standard","2","233","LP","1.25738905644119","587.746","NaN","588.194","0.448","NaN","0","393",NA
"298","R_31AdUplms9iaYiH","standard","2","234","LP","8.51632916846187","589.202","NaN","589.602","0.4","NaN","0","393",NA
"299","R_31AdUplms9iaYiH","standard","2","235","LP","1.25738905644119","590.61","NaN","591.298","0.688","NaN","0","393",NA
"300","R_31AdUplms9iaYiH","standard","2","236","LP","1.25738905644119","592.306","NaN","593.01","0.704","NaN","0","393",NA
"301","R_31AdUplms9iaYiH","standard","2","237","LP","30","594.019","NaN","594.659","0.64","NaN","0","393",NA
"302","R_31AdUplms9iaYiH","standard","2","238","LP","0.661783713916415","595.666","596.331","596.402","0.736","0.071","3","396",NA
"303","R_31AdUplms9iaYiH","standard","2","239","LP","0.264713485566566","597.411","597.682","597.898","0.487","0.216","3","399",NA
"304","R_31AdUplms9iaYiH","standard","2","240","LP","19.8235243429556","598.907","NaN","599.394","0.487","NaN","0","399",NA
