"","subject_id","condition","n_block","n_trialIdx","f_timing_condition","n_scheduled_delay","n_trial_start_time","n_rewarded_time_fin","n_sell_time_fin","n_time_waited_fin","RT_fin","n_trial_earnings_fin","n_total_earnings_fin","keypress_times"
"1","R_31Lgt2oKDvSa4VY","standard","1","1","LP","0.264713485566566","0.003","0.273","NA","1.28","NA","0","0",""
"2","R_31Lgt2oKDvSa4VY","standard","1","2","LP","5.5010771219302","2.288","7.807","8.444","6.156","0.637","3","3","540"
"3","R_31Lgt2oKDvSa4VY","standard","1","3","LP","0.661783713916415","9.449","10.11","10.935","1.486","0.825","3","6",""
"4","R_31Lgt2oKDvSa4VY","standard","1","4","LP","0.264713485566566","11.937","12.227","12.933","0.996","0.706","3","9",""
"5","R_31Lgt2oKDvSa4VY","standard","1","5","LP","3.49090909090909","13.937","17.448","18.115","4.178","0.667","3","12",""
"6","R_31Lgt2oKDvSa4VY","standard","1","6","LP","0.264713485566566","19.141","19.645","20.346","1.205","0.701","3","15",""
"7","R_31Lgt2oKDvSa4VY","standard","1","7","LP","19.8235243429556","21.358","41.186","41.974","20.616","0.788","3","18",""
"8","R_31Lgt2oKDvSa4VY","standard","1","8","LP","8.51632916846187","42.976","51.496","52.196","9.22","0.7","3","21",""
"9","R_31Lgt2oKDvSa4VY","standard","1","9","LP","0.264713485566566","53.239","53.52","54.244","1.005","0.724","3","24",""
"10","R_31Lgt2oKDvSa4VY","standard","1","10","LP","0.264713485566566","55.249","55.673","56.434","1.185","0.761","3","27",""
"11","R_31Lgt2oKDvSa4VY","standard","1","11","LP","19.8235243429556","57.441","77.27","77.899","20.458","0.629","3","21","c(""589"", ""9179"", ""9222"")"
"12","R_31Lgt2oKDvSa4VY","standard","1","12","LP","5.5010771219302","78.904","84.408","85.106","6.202","0.698","3","24",""
"13","R_31Lgt2oKDvSa4VY","standard","1","13","LP","2.15079707022835","86.113","88.264","89.113","3","0.849","3","27",""
"14","R_31Lgt2oKDvSa4VY","standard","1","14","LP","1.25738905644119","90.198","91.542","92.447","2.249","0.905","3","30",""
"15","R_31Lgt2oKDvSa4VY","standard","1","15","LP","0.661783713916415","93.449","94.112","94.876","1.427","0.764","3","33",""
"16","R_31Lgt2oKDvSa4VY","standard","1","16","LP","19.8235243429556","95.903","115.737","116.389","20.486","0.652","3","36",""
"17","R_31Lgt2oKDvSa4VY","standard","1","17","LP","3.49090909090909","117.392","120.893","121.608","4.216","0.715","3","39",""
"18","R_31Lgt2oKDvSa4VY","standard","1","18","LP","0.264713485566566","122.608","122.881","123.711","1.103","0.83","3","42",""
"19","R_31Lgt2oKDvSa4VY","standard","1","19","LP","5.5010771219302","124.713","130.243","131.013","6.3","0.77","3","45",""
"20","R_31Lgt2oKDvSa4VY","standard","1","20","LP","5.5010771219302","132.016","137.521","138.24","6.224","0.719","3","48",""
"21","R_31Lgt2oKDvSa4VY","standard","1","21","LP","19.8235243429556","139.246","159.075","159.738","20.492","0.663","3","51",""
"22","R_31Lgt2oKDvSa4VY","standard","1","22","LP","3.49090909090909","160.746","164.271","165.084","4.338","0.813","3","54",""
"23","R_31Lgt2oKDvSa4VY","standard","1","23","LP","8.51632916846187","166.101","174.651","175.495","9.394","0.844","3","57",""
"24","R_31Lgt2oKDvSa4VY","standard","1","24","LP","0.264713485566566","176.519","176.785","177.747","1.228","0.962","3","60",""
"25","R_31Lgt2oKDvSa4VY","standard","1","25","LP","2.15079707022835","178.754","180.905","181.621","2.867","0.716","3","63",""
"26","R_31Lgt2oKDvSa4VY","standard","1","26","LP","1.25738905644119","182.625","183.885","184.83","2.205","0.945","3","66",""
"27","R_31Lgt2oKDvSa4VY","standard","1","27","LP","5.5010771219302","185.835","191.358","192.019","6.184","0.661","3","69",""
"28","R_31Lgt2oKDvSa4VY","standard","1","28","LP","0.264713485566566","193.026","193.297","194.075","1.049","0.778","3","72",""
"29","R_31Lgt2oKDvSa4VY","standard","1","29","LP","2.15079707022835","195.095","197.25","197.992","2.897","0.742","3","75",""
"30","R_31Lgt2oKDvSa4VY","standard","1","30","LP","30","199.007","229.02","229.711","30.704","0.691","3","69","c(""20484"", ""25989"", ""25989"")"
"31","R_31Lgt2oKDvSa4VY","standard","1","31","LP","3.49090909090909","230.729","234.233","234.938","4.209","0.705","3","72",""
"32","R_31Lgt2oKDvSa4VY","standard","1","32","LP","8.51632916846187","235.94","244.457","245.089","9.149","0.632","3","75",""
"33","R_31Lgt2oKDvSa4VY","standard","1","33","LP","0.264713485566566","246.097","246.372","247.094","0.997","0.722","3","78",""
"34","R_31Lgt2oKDvSa4VY","standard","1","34","LP","0.661783713916415","248.096","248.793","NA","1.716","NA","0","78",""
"35","R_31Lgt2oKDvSa4VY","standard","1","35","LP","13.0392072382594","250.824","263.881","264.619","13.795","0.738","3","81",""
"36","R_31Lgt2oKDvSa4VY","standard","1","36","LP","19.8235243429556","265.629","285.456","286.166","20.537","0.71","3","84",""
"37","R_31Lgt2oKDvSa4VY","standard","1","37","LP","0.264713485566566","287.167","287.444","288.165","0.998","0.721","3","87",""
"38","R_31Lgt2oKDvSa4VY","standard","1","38","LP","0.264713485566566","289.175","289.516","290.297","1.122","0.781","3","90",""
"39","R_31Lgt2oKDvSa4VY","standard","1","39","LP","0.264713485566566","291.305","291.617","292.159","0.854","0.542","3","93",""
"40","R_31Lgt2oKDvSa4VY","standard","1","40","LP","8.51632916846187","293.161","301.688","302.502","9.341","0.814","3","96",""
"41","R_31Lgt2oKDvSa4VY","standard","1","41","LP","0.661783713916415","303.504","304.171","305.136","1.632","0.965","3","99",""
"42","R_31Lgt2oKDvSa4VY","standard","1","42","LP","19.8235243429556","306.136","325.982","326.739","20.603","0.757","3","96","c(""6524"", ""14232"")"
"43","R_31Lgt2oKDvSa4VY","standard","1","43","LP","0.661783713916415","327.751","328.416","329.077","1.326","0.661","3","99",""
"44","R_31Lgt2oKDvSa4VY","standard","1","44","LP","0.661783713916415","330.119","330.806","331.555","1.436","0.749","3","102",""
"45","R_31Lgt2oKDvSa4VY","standard","1","45","LP","13.0392072382594","332.561","345.601","346.295","13.734","0.694","3","99","c(""8394"", ""8416"")"
"46","R_31Lgt2oKDvSa4VY","standard","1","46","LP","5.5010771219302","347.299","352.809","353.468","6.169","0.659","3","102",""
"47","R_31Lgt2oKDvSa4VY","standard","1","47","LP","2.15079707022835","354.475","356.636","357.333","2.858","0.697","3","105",""
"48","R_31Lgt2oKDvSa4VY","standard","1","48","LP","5.5010771219302","358.337","363.841","364.604","6.267","0.763","3","108",""
"49","R_31Lgt2oKDvSa4VY","standard","1","49","LP","1.25738905644119","365.61","366.877","367.683","2.073","0.806","3","108","703"
"50","R_31Lgt2oKDvSa4VY","standard","1","50","LP","3.49090909090909","368.697","372.188","372.912","4.215","0.724","3","111",""
"51","R_31Lgt2oKDvSa4VY","standard","1","51","LP","1.25738905644119","373.913","375.193","375.928","2.015","0.735","3","114",""
"52","R_31Lgt2oKDvSa4VY","standard","1","52","LP","8.51632916846187","376.947","385.465","386.291","9.344","0.826","3","117",""
"53","R_31Lgt2oKDvSa4VY","standard","1","53","LP","2.15079707022835","387.304","389.482","390.344","3.04","0.862","3","120",""
"54","R_31Lgt2oKDvSa4VY","standard","1","54","LP","0.661783713916415","391.372","392.041","392.783","1.411","0.742","3","123",""
"55","R_31Lgt2oKDvSa4VY","standard","1","55","LP","5.5010771219302","393.785","399.289","400.001","6.216","0.712","3","126",""
"56","R_31Lgt2oKDvSa4VY","standard","1","56","LP","8.51632916846187","401.01","409.528","410.193","9.183","0.665","3","129",""
"57","R_31Lgt2oKDvSa4VY","standard","1","57","LP","2.15079707022835","411.201","413.356","414.084","2.883","0.728","3","132",""
"58","R_31Lgt2oKDvSa4VY","standard","1","58","LP","19.8235243429556","415.09","434.918","NA","20.839","NA","0","132",""
"59","R_31Lgt2oKDvSa4VY","standard","1","59","LP","30","436.95","466.961","NA","31.013","NA","0","132",""
"60","R_31Lgt2oKDvSa4VY","standard","1","60","LP","19.8235243429556","468.971","488.81","NA","20.844","NA","0","132",""
"61","R_31Lgt2oKDvSa4VY","standard","1","61","LP","0.661783713916415","490.849","491.523","492.289","1.44","0.766","3","135",""
"62","R_31Lgt2oKDvSa4VY","standard","1","62","LP","2.15079707022835","493.293","495.449","496.033","2.74","0.584","3","138",""
"63","R_31Lgt2oKDvSa4VY","standard","1","63","LP","30","497.041","527.109","527.85","30.809","0.741","3","135","c(""13439"", ""13488"")"
"64","R_31Lgt2oKDvSa4VY","standard","1","64","LP","8.51632916846187","528.889","537.417","538.139","9.25","0.722","3","138",""
"65","R_31Lgt2oKDvSa4VY","standard","1","65","LP","0.264713485566566","539.146","539.419","540.241","1.095","0.822","3","141",""
"66","R_31Lgt2oKDvSa4VY","standard","1","66","LP","30","541.286","571.29","571.918","30.632","0.628","3","144",""
"67","R_31Lgt2oKDvSa4VY","standard","1","67","LP","3.49090909090909","572.92","576.418","577.105","4.185","0.687","3","147",""
"68","R_31Lgt2oKDvSa4VY","standard","1","68","LP","8.51632916846187","578.13","586.658","587.331","9.201","0.673","3","150",""
"69","R_31Lgt2oKDvSa4VY","standard","1","69","LP","8.51632916846187","588.335","596.865","597.717","9.382","0.852","3","153",""
"70","R_31Lgt2oKDvSa4VY","standard","1","70","LP","5.5010771219302","598.721","604.224","604.985","6.264","0.761","3","156",""
"71","R_31Lgt2oKDvSa4VY","standard","1","71","LP","0.264713485566566","605.985","606.257","606.993","1.008","0.736","3","159",""
"72","R_31Lgt2oKDvSa4VY","standard","1","72","LP","3.49090909090909","607.998","611.49","612.246","4.248","0.756","3","162",""
"73","R_31Lgt2oKDvSa4VY","standard","1","73","LP","2.15079707022835","613.249","615.407","616.262","3.013","0.855","3","165",""
"74","R_31Lgt2oKDvSa4VY","standard","1","74","LP","19.8235243429556","617.265","637.09","NA","20.846","NA","0","159","c(""19761"", ""19803"")"
"75","R_31Lgt2oKDvSa4VY","standard","1","75","LP","5.5010771219302","639.113","644.618","645.355","6.242","0.737","3","162",""
"76","R_31Lgt2oKDvSa4VY","standard","1","76","LP","0.264713485566566","646.362","646.634","647.285","0.923","0.651","3","165",""
"77","R_31Lgt2oKDvSa4VY","standard","1","77","LP","3.49090909090909","648.325","651.817","652.435","4.11","0.618","3","165","940"
"78","R_31Lgt2oKDvSa4VY","standard","1","78","LP","13.0392072382594","653.44","666.546","667.143","13.703","0.597","3","162","c(""804"", ""929"")"
"79","R_31Lgt2oKDvSa4VY","standard","1","79","LP","5.5010771219302","668.146","673.652","674.305","6.159","0.653","3","159","c(""697"", ""778"")"
"80","R_31Lgt2oKDvSa4VY","standard","1","80","LP","2.15079707022835","675.314","677.465","678.212","2.898","0.747","3","162",""
"81","R_31Lgt2oKDvSa4VY","standard","1","81","LP","1.25738905644119","679.217","680.488","681.204","1.987","0.716","3","165",""
"82","R_31Lgt2oKDvSa4VY","standard","1","82","LP","19.8235243429556","682.209","702.034","702.721","20.512","0.687","3","168",""
"83","R_31Lgt2oKDvSa4VY","standard","1","83","LP","8.51632916846187","703.725","712.252","712.954","9.229","0.702","3","165","c(""1590"", ""1658"")"
"84","R_31Lgt2oKDvSa4VY","standard","1","84","LP","30","713.969","743.981","NA","31.014","NA","0","138","c(""5675"", ""5765"", ""9238"", ""10258"", ""10803"", ""12673"", ""12994"", ""14727"", ""15967"")"
"85","R_31Lgt2oKDvSa4VY","standard","1","85","LP","19.8235243429556","745.977","765.825","766.454","20.477","0.629","3","123","c(""1595"", ""1814"", ""2284"", ""2384"", ""2705"", ""2819"")"
"86","R_31Lgt2oKDvSa4VY","standard","1","86","LP","30","767.457","797.465","798.06","30.603","0.595","3","126",""
"87","R_31Lgt2oKDvSa4VY","standard","1","87","LP","30","799.067","829.085","829.91","30.843","0.825","3","114","c(""14396"", ""19502"", ""19555"", ""22288"", ""22289"")"
"88","R_31Lgt2oKDvSa4VY","standard","1","88","LP","3.49090909090909","830.931","834.44","835.127","4.196","0.687","3","117",""
"89","R_31Lgt2oKDvSa4VY","standard","1","89","LP","13.0392072382594","836.149","849.191","849.92","13.771","0.729","3","114","c(""528"", ""569"")"
"90","R_31Lgt2oKDvSa4VY","standard","1","90","LP","13.0392072382594","850.925","863.968","864.761","13.836","0.793","3","117",""
"91","R_31Lgt2oKDvSa4VY","standard","1","91","LP","0.661783713916415","865.77","866.434","867.35","1.58","0.916","3","120",""
"92","R_31Lgt2oKDvSa4VY","standard","1","92","LP","1.25738905644119","868.358","869.639","870.348","1.99","0.709","3","123",""
"93","R_31Lgt2oKDvSa4VY","standard","1","93","LP","0.661783713916415","871.355","872.059","872.673","1.318","0.614","3","126",""
"94","R_31Lgt2oKDvSa4VY","standard","1","94","LP","0.661783713916415","873.676","874.343","875.19","1.514","0.847","3","129",""
"95","R_31Lgt2oKDvSa4VY","standard","2","1","LP","2.15079707022835","0","NaN","0.985","0.985","NaN","0","129",NA
"96","R_31Lgt2oKDvSa4VY","standard","2","2","LP","3.49090909090909","1.998","NaN","2.699","0.701","NaN","0","129",NA
"97","R_31Lgt2oKDvSa4VY","standard","2","3","LP","30","3.728","NaN","4.655","0.927","NaN","0","129",NA
"98","R_31Lgt2oKDvSa4VY","standard","2","4","LP","0.264713485566566","5.674","5.948","6.755","1.081","0.807","3","132",NA
"99","R_31Lgt2oKDvSa4VY","standard","2","5","LP","0.264713485566566","7.761","8.031","8.696","0.935","0.665","3","135",NA
"100","R_31Lgt2oKDvSa4VY","standard","2","6","LP","5.5010771219302","9.708","15.243","16.066","6.358","0.823","3","138",NA
"101","R_31Lgt2oKDvSa4VY","standard","2","7","LP","13.0392072382594","17.098","30.15","30.754","13.656","0.604","3","141",NA
"102","R_31Lgt2oKDvSa4VY","standard","2","8","LP","2.15079707022835","31.758","33.91","34.617","2.859","0.707","3","144",NA
"103","R_31Lgt2oKDvSa4VY","standard","2","9","LP","5.5010771219302","35.627","41.135","41.762","6.135","0.627","3","147",NA
"104","R_31Lgt2oKDvSa4VY","standard","2","10","LP","1.25738905644119","42.766","44.028","44.743","1.977","0.715","3","150",NA
"105","R_31Lgt2oKDvSa4VY","standard","2","11","LP","3.49090909090909","45.747","49.238","49.873","4.126","0.635","3","153",NA
"106","R_31Lgt2oKDvSa4VY","standard","2","12","LP","3.49090909090909","50.879","54.402","55.001","4.122","0.599","3","156",NA
"107","R_31Lgt2oKDvSa4VY","standard","2","13","LP","1.25738905644119","56.058","57.317","58.032","1.974","0.715","3","159",NA
"108","R_31Lgt2oKDvSa4VY","standard","2","14","LP","2.15079707022835","59.033","61.191","61.602","2.569","0.411","3","162",NA
"109","R_31Lgt2oKDvSa4VY","standard","2","15","LP","30","62.606","NaN","65.083","2.477","NaN","0","162",NA
"110","R_31Lgt2oKDvSa4VY","standard","2","16","LP","0.264713485566566","66.086","66.36","67.063","0.977","0.703","3","165",NA
"111","R_31Lgt2oKDvSa4VY","standard","2","17","LP","0.264713485566566","68.07","68.334","69.033","0.963","0.699","3","168",NA
"112","R_31Lgt2oKDvSa4VY","standard","2","18","LP","0.264713485566566","70.037","70.404","71.163","1.126","0.759","3","171",NA
"113","R_31Lgt2oKDvSa4VY","standard","2","19","LP","30","72.17","102.182","102.898","30.728","0.716","3","174",NA
"114","R_31Lgt2oKDvSa4VY","standard","2","20","LP","5.5010771219302","103.976","109.477","110.261","6.285","0.784","3","177",NA
"115","R_31Lgt2oKDvSa4VY","standard","2","21","LP","3.49090909090909","111.261","114.763","115.449","4.188","0.686","3","180",NA
"116","R_31Lgt2oKDvSa4VY","standard","2","22","LP","5.5010771219302","116.455","121.959","122.675","6.22","0.716","3","183",NA
"117","R_31Lgt2oKDvSa4VY","standard","2","23","LP","0.661783713916415","123.683","124.347","124.992","1.309","0.645","3","186",NA
"118","R_31Lgt2oKDvSa4VY","standard","2","24","LP","1.25738905644119","125.994","127.255","128.105","2.111","0.85","3","189",NA
"119","R_31Lgt2oKDvSa4VY","standard","2","25","LP","19.8235243429556","129.112","NaN","129.831","0.719","NaN","0","189",NA
"120","R_31Lgt2oKDvSa4VY","standard","2","26","LP","1.25738905644119","130.846","132.112","132.79","1.944","0.678","3","192",NA
"121","R_31Lgt2oKDvSa4VY","standard","2","27","LP","2.15079707022835","133.815","135.969","136.667","2.852","0.698","3","195",NA
"122","R_31Lgt2oKDvSa4VY","standard","2","28","LP","13.0392072382594","137.671","NaN","140.736","3.065","NaN","0","195",NA
"123","R_31Lgt2oKDvSa4VY","standard","2","29","LP","0.661783713916415","141.748","142.411","143.145","1.397","0.734","3","198",NA
"124","R_31Lgt2oKDvSa4VY","standard","2","30","LP","1.25738905644119","144.157","145.441","146.101","1.944","0.66","3","201",NA
"125","R_31Lgt2oKDvSa4VY","standard","2","31","LP","8.51632916846187","147.102","155.651","156.423","9.321","0.772","3","204",NA
"126","R_31Lgt2oKDvSa4VY","standard","2","32","LP","0.264713485566566","157.431","157.702","158.44","1.009","0.738","3","207",NA
"127","R_31Lgt2oKDvSa4VY","standard","2","33","LP","2.15079707022835","159.546","161.702","162.58","3.034","0.878","3","210",NA
"128","R_31Lgt2oKDvSa4VY","standard","2","34","LP","3.49090909090909","163.584","167.075","167.706","4.122","0.631","3","213",NA
"129","R_31Lgt2oKDvSa4VY","standard","2","35","LP","0.661783713916415","168.711","169.375",NA,"1.679",NA,"0","213",NA
"130","R_31Lgt2oKDvSa4VY","standard","2","36","LP","19.8235243429556","171.39","NaN","175.299","3.909","NaN","0","213",NA
"131","R_31Lgt2oKDvSa4VY","standard","2","37","LP","13.0392072382594","176.302","NaN","176.989","0.687","NaN","0","213",NA
"132","R_31Lgt2oKDvSa4VY","standard","2","38","LP","30","177.99","NaN","179.913","1.923","NaN","0","213",NA
"133","R_31Lgt2oKDvSa4VY","standard","2","39","LP","8.51632916846187","180.918","189.44","190.179","9.261","0.739","3","216",NA
"134","R_31Lgt2oKDvSa4VY","standard","2","40","LP","5.5010771219302","191.183","196.69","197.395","6.212","0.705","3","219",NA
"135","R_31Lgt2oKDvSa4VY","standard","2","41","LP","13.0392072382594","198.398","211.448","212.318","13.92","0.87","3","222",NA
"136","R_31Lgt2oKDvSa4VY","standard","2","42","LP","5.5010771219302","213.319","NaN","216.918","3.599","NaN","0","222",NA
"137","R_31Lgt2oKDvSa4VY","standard","2","43","LP","2.15079707022835","217.921","220.071","220.918","2.997","0.847","3","225",NA
"138","R_31Lgt2oKDvSa4VY","standard","2","44","LP","8.51632916846187","221.923","230.44","231.197","9.274","0.757","3","228",NA
"139","R_31Lgt2oKDvSa4VY","standard","2","45","LP","2.15079707022835","232.199","234.352","235.126","2.927","0.774","3","231",NA
"140","R_31Lgt2oKDvSa4VY","standard","2","46","LP","1.25738905644119","236.144","237.402","238.23","2.086","0.828","3","234",NA
"141","R_31Lgt2oKDvSa4VY","standard","2","47","LP","3.49090909090909","239.234","242.728","243.586","4.352","0.858","3","237",NA
"142","R_31Lgt2oKDvSa4VY","standard","2","48","LP","1.25738905644119","244.599","245.864","246.842","2.243","0.978","3","240",NA
"143","R_31Lgt2oKDvSa4VY","standard","2","49","LP","3.49090909090909","247.863","251.472","251.859","3.996","0.387","3","243",NA
"144","R_31Lgt2oKDvSa4VY","standard","2","50","LP","13.0392072382594","252.87","265.942","266.875","14.005","0.933","3","246",NA
"145","R_31Lgt2oKDvSa4VY","standard","2","51","LP","0.264713485566566","267.879","268.237","268.937","1.058","0.7","3","249",NA
"146","R_31Lgt2oKDvSa4VY","standard","2","52","LP","30","269.956","NaN","273.225","3.269","NaN","0","249",NA
"147","R_31Lgt2oKDvSa4VY","standard","2","53","LP","0.661783713916415","274.232","274.893","275.596","1.364","0.703","3","252",NA
"148","R_31Lgt2oKDvSa4VY","standard","2","54","LP","0.264713485566566","276.599","276.873","277.585","0.986","0.712","3","255",NA
"149","R_31Lgt2oKDvSa4VY","standard","2","55","LP","3.49090909090909","278.599","282.091","282.781","4.182","0.69","3","258",NA
"150","R_31Lgt2oKDvSa4VY","standard","2","56","LP","30","283.785","313.791","314.531","30.746","0.74","3","261",NA
"151","R_31Lgt2oKDvSa4VY","standard","2","57","LP","5.5010771219302","315.558","321.059","321.875","6.317","0.816","3","264",NA
"152","R_31Lgt2oKDvSa4VY","standard","2","58","LP","19.8235243429556","322.88","342.714","343.487","20.607","0.773","3","267",NA
"153","R_31Lgt2oKDvSa4VY","standard","2","59","LP","2.15079707022835","344.488","346.645","347.454","2.966","0.809","3","270",NA
"154","R_31Lgt2oKDvSa4VY","standard","2","60","LP","5.5010771219302","348.478","353.984",NA,"6.507",NA,"0","270",NA
"155","R_31Lgt2oKDvSa4VY","standard","2","61","LP","13.0392072382594","355.994","NaN","360.752","4.758","NaN","0","270",NA
"156","R_31Lgt2oKDvSa4VY","standard","2","62","LP","13.0392072382594","361.757","NaN","365.153","3.396","NaN","0","270",NA
"157","R_31Lgt2oKDvSa4VY","standard","2","63","LP","13.0392072382594","366.165","379.204","379.834","13.669","0.63","3","273",NA
"158","R_31Lgt2oKDvSa4VY","standard","2","64","LP","0.661783713916415","380.837","381.503","382.314","1.477","0.811","3","276",NA
"159","R_31Lgt2oKDvSa4VY","standard","2","65","LP","5.5010771219302","383.319","NaN","384.885","1.566","NaN","0","276",NA
"160","R_31Lgt2oKDvSa4VY","standard","2","66","LP","3.49090909090909","385.902","389.399","390.101","4.199","0.702","3","279",NA
"161","R_31Lgt2oKDvSa4VY","standard","2","67","LP","2.15079707022835","391.103","393.254","394.107","3.004","0.853","3","282",NA
"162","R_31Lgt2oKDvSa4VY","standard","2","68","LP","2.15079707022835","395.108","397.263","398.001","2.893","0.738","3","285",NA
"163","R_31Lgt2oKDvSa4VY","standard","2","69","LP","0.264713485566566","399.006","399.297","400.077","1.071","0.78","3","288",NA
"164","R_31Lgt2oKDvSa4VY","standard","2","70","LP","13.0392072382594","401.077","NaN","404.913","3.836","NaN","0","288",NA
"165","R_31Lgt2oKDvSa4VY","standard","2","71","LP","8.51632916846187","405.937","414.464","415.172","9.235","0.708","3","291",NA
"166","R_31Lgt2oKDvSa4VY","standard","2","72","LP","0.661783713916415","416.172","NaN","416.419","0.247","NaN","0","291",NA
"167","R_31Lgt2oKDvSa4VY","standard","2","73","LP","2.15079707022835","417.423","419.575","420.332","2.909","0.757","3","294",NA
"168","R_31Lgt2oKDvSa4VY","standard","2","74","LP","0.264713485566566","421.335","421.606","422.362","1.027","0.756","3","297",NA
"169","R_31Lgt2oKDvSa4VY","standard","2","75","LP","5.5010771219302","423.398","NaN","428.152","4.754","NaN","0","297",NA
"170","R_31Lgt2oKDvSa4VY","standard","2","76","LP","3.49090909090909","429.167","432.668","433.394","4.227","0.726","3","300",NA
"171","R_31Lgt2oKDvSa4VY","standard","2","77","LP","5.5010771219302","434.399","439.903","440.712","6.313","0.809","3","303",NA
"172","R_31Lgt2oKDvSa4VY","standard","2","78","LP","2.15079707022835","441.718","NaN","442.922","1.204","NaN","0","303",NA
"173","R_31Lgt2oKDvSa4VY","standard","2","79","LP","1.25738905644119","443.926","NaN","444.591","0.665","NaN","0","303",NA
"174","R_31Lgt2oKDvSa4VY","standard","2","80","LP","3.49090909090909","445.614","449.11","449.669","4.055","0.559","3","306",NA
"175","R_31Lgt2oKDvSa4VY","standard","2","81","LP","19.8235243429556","450.671","470.5","471.227","20.556","0.727","3","309",NA
"176","R_31Lgt2oKDvSa4VY","standard","2","82","LP","3.49090909090909","472.23","475.728",NA,"4.504",NA,"0","309",NA
"177","R_31Lgt2oKDvSa4VY","standard","2","83","LP","2.15079707022835","477.734","479.903",NA,"3.206",NA,"0","309",NA
"178","R_31Lgt2oKDvSa4VY","standard","2","84","LP","2.15079707022835","481.943","484.095","484.806","2.863","0.711","3","312",NA
"179","R_31Lgt2oKDvSa4VY","standard","2","85","LP","0.264713485566566","485.808","486.081","486.798","0.99","0.717","3","315",NA
"180","R_31Lgt2oKDvSa4VY","standard","2","86","LP","2.15079707022835","487.8","489.95","490.634","2.834","0.684","3","318",NA
"181","R_31Lgt2oKDvSa4VY","standard","2","87","LP","0.264713485566566","491.639","491.972","492.65","1.011","0.678","3","321",NA
"182","R_31Lgt2oKDvSa4VY","standard","2","88","LP","0.264713485566566","493.655","493.929","494.558","0.903","0.629","3","324",NA
"183","R_31Lgt2oKDvSa4VY","standard","2","89","LP","19.8235243429556","495.581","NaN","502.949","7.368","NaN","0","324",NA
"184","R_31Lgt2oKDvSa4VY","standard","2","90","LP","1.25738905644119","503.95","505.216","505.859","1.909","0.643","3","327",NA
"185","R_31Lgt2oKDvSa4VY","standard","2","91","LP","2.15079707022835","506.863","509.018","509.638","2.775","0.62","3","330",NA
"186","R_31Lgt2oKDvSa4VY","standard","2","92","LP","30","510.64","540.654","541.313","30.673","0.659","3","333",NA
"187","R_31Lgt2oKDvSa4VY","standard","2","93","LP","13.0392072382594","542.314","NaN","555","12.686","NaN","0","333",NA
"188","R_31Lgt2oKDvSa4VY","standard","2","94","LP","0.264713485566566","556.008","556.279","557.104","1.096","0.825","3","336",NA
"189","R_31Lgt2oKDvSa4VY","standard","2","95","LP","5.5010771219302","558.315","563.828",NA,"6.515",NA,"0","336",NA
"190","R_31Lgt2oKDvSa4VY","standard","2","96","LP","5.5010771219302","565.84","NaN","566.15","0.31","NaN","0","336",NA
"191","R_31Lgt2oKDvSa4VY","standard","2","97","LP","3.49090909090909","567.152","570.675","571.53","4.378","0.855","3","339",NA
"192","R_31Lgt2oKDvSa4VY","standard","2","98","LP","0.661783713916415","572.54","573.216","574.051","1.511","0.835","3","342",NA
"193","R_31Lgt2oKDvSa4VY","standard","2","99","LP","3.49090909090909","575.057","578.552","579.382","4.325","0.83","3","345",NA
"194","R_31Lgt2oKDvSa4VY","standard","2","100","LP","19.8235243429556","580.384","NaN","581.178","0.794","NaN","0","345",NA
"195","R_31Lgt2oKDvSa4VY","standard","2","101","LP","2.15079707022835","582.184","584.387","585.076","2.892","0.689","3","348",NA
"196","R_31Lgt2oKDvSa4VY","standard","2","102","LP","5.5010771219302","586.092","591.6","592.304","6.212","0.704","3","351",NA
"197","R_31Lgt2oKDvSa4VY","standard","2","103","LP","5.5010771219302","593.312","598.816","599.612","6.3","0.796","3","354",NA
