"","subject_id","condition","n_block","n_trialIdx","f_timing_condition","n_scheduled_delay","n_trial_start_time","n_rewarded_time_fin","n_sell_time_fin","n_time_waited_fin","RT_fin","n_trial_earnings_fin","n_total_earnings_fin","keypress_times"
"1","R_33CgdCHaxJxQkfs","standard","1","1","HP","14","0.001","14.006","14.311","14.31","0.305","3","3",""
"2","R_33CgdCHaxJxQkfs","standard","1","2","HP","12","15.324","27.324","27.667","12.343","0.343","3","6",""
"3","R_33CgdCHaxJxQkfs","standard","1","3","HP","20","28.67","48.676","49.077","20.407","0.401","3","9",""
"4","R_33CgdCHaxJxQkfs","standard","1","4","HP","4","50.085","54.092","54.459","4.374","0.367","3","12",""
"5","R_33CgdCHaxJxQkfs","standard","1","5","HP","6","55.46","61.466","61.918","6.458","0.452","3","15",""
"6","R_33CgdCHaxJxQkfs","standard","1","6","HP","14","62.925","76.932","77.254","14.329","0.322","3","18",""
"7","R_33CgdCHaxJxQkfs","standard","1","7","HP","14","78.261","92.277","92.632","14.371","0.355","3","21",""
"8","R_33CgdCHaxJxQkfs","standard","1","8","HP","6","93.635","99.643","NA","7.013","NA","0","21",""
"9","R_33CgdCHaxJxQkfs","standard","1","9","HP","8","101.652","109.659","110.028","8.376","0.369","3","24",""
"10","R_33CgdCHaxJxQkfs","standard","1","10","HP","12","111.035","123.043","123.508","12.473","0.465","3","27",""
"11","R_33CgdCHaxJxQkfs","standard","1","11","HP","14","124.512","138.513","138.877","14.365","0.364","3","30",""
"12","R_33CgdCHaxJxQkfs","standard","1","12","HP","16","139.883","155.893","156.216","16.333","0.323","3","33",""
"13","R_33CgdCHaxJxQkfs","standard","1","13","HP","10","157.22","167.228","167.581","10.361","0.353","3","36",""
"14","R_33CgdCHaxJxQkfs","standard","1","14","HP","16","168.59","184.596","184.909","16.319","0.313","3","39",""
"15","R_33CgdCHaxJxQkfs","standard","1","15","HP","6","185.914","191.916","192.275","6.361","0.359","3","42",""
"16","R_33CgdCHaxJxQkfs","standard","1","16","HP","20","193.281","213.285","213.592","20.311","0.307","3","45",""
"17","R_33CgdCHaxJxQkfs","standard","1","17","HP","8","214.598","222.604","223","8.402","0.396","3","48",""
"18","R_33CgdCHaxJxQkfs","standard","1","18","HP","4","224.005","228.009","228.406","4.401","0.397","3","51",""
"19","R_33CgdCHaxJxQkfs","standard","1","19","HP","8","229.409","237.411","237.813","8.404","0.402","3","54",""
"20","R_33CgdCHaxJxQkfs","standard","1","20","HP","14","238.82","252.829","253.179","14.359","0.35","3","57",""
"21","R_33CgdCHaxJxQkfs","standard","1","21","HP","10","254.181","264.189","264.532","10.351","0.343","3","60",""
"22","R_33CgdCHaxJxQkfs","standard","1","22","HP","10","265.533","275.54","275.928","10.395","0.388","3","63",""
"23","R_33CgdCHaxJxQkfs","standard","1","23","HP","10","276.932","286.939","287.298","10.366","0.359","3","66",""
"24","R_33CgdCHaxJxQkfs","standard","1","24","HP","6","288.301","294.309","294.68","6.379","0.371","3","69",""
"25","R_33CgdCHaxJxQkfs","standard","1","25","HP","16","295.684","311.692","312.134","16.45","0.442","3","72",""
"26","R_33CgdCHaxJxQkfs","standard","1","26","HP","2","313.14","315.148","315.84","2.7","0.692","3","75",""
"27","R_33CgdCHaxJxQkfs","standard","1","27","HP","10","316.842","326.844","327.186","10.344","0.342","3","78",""
"28","R_33CgdCHaxJxQkfs","standard","1","28","HP","8","328.188","336.196","336.581","8.393","0.385","3","81",""
"29","R_33CgdCHaxJxQkfs","standard","1","29","HP","8","337.595","345.605","345.942","8.347","0.337","3","84",""
"30","R_33CgdCHaxJxQkfs","standard","1","30","HP","12","346.948","358.956","359.328","12.38","0.372","3","87",""
"31","R_33CgdCHaxJxQkfs","standard","1","31","HP","2","360.329","362.332","362.891","2.562","0.559","3","90",""
"32","R_33CgdCHaxJxQkfs","standard","1","32","HP","16","363.905","379.921","380.305","16.4","0.384","3","93",""
"33","R_33CgdCHaxJxQkfs","standard","1","33","HP","8","381.309","389.309","389.729","8.42","0.42","3","96",""
"34","R_33CgdCHaxJxQkfs","standard","1","34","HP","20","390.732","410.739","411.203","20.471","0.464","3","99",""
"35","R_33CgdCHaxJxQkfs","standard","1","35","HP","16","412.213","428.222","428.671","16.458","0.449","3","102",""
"36","R_33CgdCHaxJxQkfs","standard","1","36","HP","20","429.686","449.701","450.01","20.324","0.309","3","105",""
"37","R_33CgdCHaxJxQkfs","standard","1","37","HP","6","451.012","457.02","457.439","6.427","0.419","3","108",""
"38","R_33CgdCHaxJxQkfs","standard","1","38","HP","10","458.444","468.453","468.808","10.364","0.355","3","111",""
"39","R_33CgdCHaxJxQkfs","standard","1","39","HP","18","469.816","487.821","488.37","18.554","0.549","3","111","4524"
"40","R_33CgdCHaxJxQkfs","standard","1","40","HP","6","489.372","495.38","495.822","6.45","0.442","3","114",""
"41","R_33CgdCHaxJxQkfs","standard","1","41","HP","8","496.829","504.837","505.255","8.426","0.418","3","117",""
"42","R_33CgdCHaxJxQkfs","standard","1","42","HP","20","506.261","526.268","526.676","20.415","0.408","3","120",""
"43","R_33CgdCHaxJxQkfs","standard","1","43","HP","14","527.694","541.714","542.055","14.361","0.341","3","123",""
"44","R_33CgdCHaxJxQkfs","standard","1","44","HP","10","543.06","553.068","553.746","10.686","0.678","3","126",""
"45","R_33CgdCHaxJxQkfs","standard","1","45","HP","2","554.749","556.752","557.263","2.514","0.511","3","129",""
"46","R_33CgdCHaxJxQkfs","standard","1","46","HP","20","558.268","578.276","578.688","20.42","0.412","3","132",""
"47","R_33CgdCHaxJxQkfs","standard","1","47","HP","14","579.7","593.709","594.07","14.37","0.361","3","135",""
"48","R_33CgdCHaxJxQkfs","standard","1","48","HP","10","595.082","605.084","605.747","10.665","0.663","3","138",""
"49","R_33CgdCHaxJxQkfs","standard","1","49","HP","12","606.749","618.751","619.308","12.559","0.557","3","141",""
"50","R_33CgdCHaxJxQkfs","standard","1","50","HP","16","620.309","636.313","636.701","16.392","0.388","3","144",""
"51","R_33CgdCHaxJxQkfs","standard","1","51","HP","20","637.715","657.716","658.186","20.471","0.47","3","147",""
"52","R_33CgdCHaxJxQkfs","standard","1","52","HP","8","659.189","667.196","667.844","8.655","0.648","3","150",""
"53","R_33CgdCHaxJxQkfs","standard","1","53","HP","14","668.849","682.852","683.178","14.329","0.326","3","153",""
"54","R_33CgdCHaxJxQkfs","standard","1","54","HP","20","684.18","704.203","704.988","20.808","0.785","3","156",""
"55","R_33CgdCHaxJxQkfs","standard","1","55","HP","14","705.996","720.004","720.493","14.497","0.489","3","159",""
"56","R_33CgdCHaxJxQkfs","standard","1","56","HP","12","721.501","733.508","733.978","12.477","0.47","3","162",""
"57","R_33CgdCHaxJxQkfs","standard","1","57","HP","8","734.981","742.988","743.422","8.441","0.434","3","165",""
"58","R_33CgdCHaxJxQkfs","standard","1","58","HP","8","744.429","752.436","753.009","8.58","0.573","3","168",""
"59","R_33CgdCHaxJxQkfs","standard","1","59","HP","10","754.009","764.013","764.448","10.439","0.435","3","171",""
"60","R_33CgdCHaxJxQkfs","standard","1","60","HP","18","765.452","783.474","783.954","18.502","0.48","3","174",""
"61","R_33CgdCHaxJxQkfs","standard","1","61","HP","6","784.969","790.972","791.44","6.471","0.468","3","177",""
"62","R_33CgdCHaxJxQkfs","standard","1","62","HP","10","792.444","802.446","802.857","10.413","0.411","3","180",""
"63","R_33CgdCHaxJxQkfs","standard","1","63","HP","6","803.86","809.862","810.453","6.593","0.591","3","183",""
"64","R_33CgdCHaxJxQkfs","standard","1","64","HP","6","811.46","817.468","817.931","6.471","0.463","3","186",""
"65","R_33CgdCHaxJxQkfs","standard","1","65","HP","4","818.933","822.94","823.557","4.624","0.617","3","189",""
"66","R_33CgdCHaxJxQkfs","standard","1","66","HP","6","824.572","830.573","830.991","6.419","0.418","3","192",""
"67","R_33CgdCHaxJxQkfs","standard","1","67","HP","12","831.997","844.005","844.493","12.496","0.488","3","195",""
"68","R_33CgdCHaxJxQkfs","standard","1","68","HP","14","845.515","859.516","859.977","14.462","0.461","3","198",""
"69","R_33CgdCHaxJxQkfs","standard","1","69","HP","14","860.981","874.988","875.411","14.43","0.423","3","201",""
"70","R_33CgdCHaxJxQkfs","standard","1","70","HP","12","876.413","888.421","888.887","12.474","0.466","3","204",""
"71","R_33CgdCHaxJxQkfs","standard","2","1","LP","1.25738905644119","0","1.261","1.946","1.946","0.685","3","207",NA
"72","R_33CgdCHaxJxQkfs","standard","2","2","LP","0.264713485566566","2.948","3.221","3.823","0.875","0.602","3","210",NA
"73","R_33CgdCHaxJxQkfs","standard","2","3","LP","0.661783713916415","4.828","5.492","5.951","1.123","0.459","3","213",NA
"74","R_33CgdCHaxJxQkfs","standard","2","4","LP","3.49090909090909","6.955","10.452","10.865","3.91","0.413","3","216",NA
"75","R_33CgdCHaxJxQkfs","standard","2","5","LP","0.264713485566566","11.868","12.14","12.566","0.698","0.426","3","219",NA
"76","R_33CgdCHaxJxQkfs","standard","2","6","LP","0.264713485566566","13.584","13.852","14.24","0.656","0.388","3","222",NA
"77","R_33CgdCHaxJxQkfs","standard","2","7","LP","8.51632916846187","15.245","NaN","21.694","6.449","NaN","0","222",NA
"78","R_33CgdCHaxJxQkfs","standard","2","8","LP","13.0392072382594","22.7","NaN","32.11","9.41","NaN","0","222",NA
"79","R_33CgdCHaxJxQkfs","standard","2","9","LP","2.15079707022835","33.113","35.268","35.852","2.739","0.584","3","225",NA
"80","R_33CgdCHaxJxQkfs","standard","2","10","LP","2.15079707022835","36.86","39.012","39.467","2.607","0.455","3","228",NA
"81","R_33CgdCHaxJxQkfs","standard","2","11","LP","3.49090909090909","40.468","43.964","44.498","4.03","0.534","3","231",NA
"82","R_33CgdCHaxJxQkfs","standard","2","12","LP","5.5010771219302","45.505","51.013","51.55","6.045","0.537","3","234",NA
"83","R_33CgdCHaxJxQkfs","standard","2","13","LP","3.49090909090909","52.557","56.052","56.57","4.013","0.518","3","237",NA
"84","R_33CgdCHaxJxQkfs","standard","2","14","LP","30","57.578","NaN","64.683","7.105","NaN","0","237",NA
"85","R_33CgdCHaxJxQkfs","standard","2","15","LP","13.0392072382594","65.69","NaN","72.299","6.609","NaN","0","237",NA
"86","R_33CgdCHaxJxQkfs","standard","2","16","LP","3.49090909090909","73.3","76.796","77.165","3.865","0.369","3","240",NA
"87","R_33CgdCHaxJxQkfs","standard","2","17","LP","0.264713485566566","78.17","78.437","78.891","0.721","0.454","3","243",NA
"88","R_33CgdCHaxJxQkfs","standard","2","18","LP","0.264713485566566","79.892","80.164","80.575","0.683","0.411","3","246",NA
"89","R_33CgdCHaxJxQkfs","standard","2","19","LP","0.661783713916415","81.587","82.252","82.663","1.076","0.411","3","249",NA
"90","R_33CgdCHaxJxQkfs","standard","2","20","LP","0.264713485566566","83.671","83.94","84.355","0.684","0.415","3","252",NA
"91","R_33CgdCHaxJxQkfs","standard","2","21","LP","0.661783713916415","85.362","86.029","86.412","1.05","0.383","3","255",NA
"92","R_33CgdCHaxJxQkfs","standard","2","22","LP","3.49090909090909","87.42","90.913","91.355","3.935","0.442","3","258",NA
"93","R_33CgdCHaxJxQkfs","standard","2","23","LP","0.661783713916415","92.356","93.02",NA,"1.668",NA,"0","258",NA
"94","R_33CgdCHaxJxQkfs","standard","2","24","LP","8.51632916846187","95.029","NaN","100.815","5.786","NaN","0","258",NA
"95","R_33CgdCHaxJxQkfs","standard","2","25","LP","13.0392072382594","101.82","NaN","108.909","7.089","NaN","0","258",NA
"96","R_33CgdCHaxJxQkfs","standard","2","26","LP","5.5010771219302","109.913","115.419","115.835","5.922","0.416","3","261",NA
"97","R_33CgdCHaxJxQkfs","standard","2","27","LP","1.25738905644119","116.836","118.101","118.491","1.655","0.39","3","264",NA
"98","R_33CgdCHaxJxQkfs","standard","2","28","LP","13.0392072382594","119.492","NaN","127.624","8.132","NaN","0","264",NA
"99","R_33CgdCHaxJxQkfs","standard","2","29","LP","19.8235243429556","128.629","NaN","136.038","7.409","NaN","0","264",NA
"100","R_33CgdCHaxJxQkfs","standard","2","30","LP","3.49090909090909","137.045","140.535","140.974","3.929","0.439","3","267",NA
"101","R_33CgdCHaxJxQkfs","standard","2","31","LP","3.49090909090909","141.98","145.489","145.889","3.909","0.4","3","270",NA
"102","R_33CgdCHaxJxQkfs","standard","2","32","LP","19.8235243429556","146.904","NaN","154.358","7.454","NaN","0","270",NA
"103","R_33CgdCHaxJxQkfs","standard","2","33","LP","8.51632916846187","155.365","NaN","163.056","7.691","NaN","0","270",NA
"104","R_33CgdCHaxJxQkfs","standard","2","34","LP","3.49090909090909","164.06","167.556","167.971","3.911","0.415","3","273",NA
"105","R_33CgdCHaxJxQkfs","standard","2","35","LP","19.8235243429556","168.972","NaN","184.872","15.9","NaN","0","273",NA
"106","R_33CgdCHaxJxQkfs","standard","2","36","LP","8.51632916846187","185.876","194.396","194.776","8.9","0.38","3","276",NA
"107","R_33CgdCHaxJxQkfs","standard","2","37","LP","1.25738905644119","195.781","197.045","197.47","1.689","0.425","3","279",NA
"108","R_33CgdCHaxJxQkfs","standard","2","38","LP","30","198.476","NaN","207.969","9.493","NaN","0","279",NA
"109","R_33CgdCHaxJxQkfs","standard","2","39","LP","5.5010771219302","208.977","214.485","214.874","5.897","0.389","3","282",NA
"110","R_33CgdCHaxJxQkfs","standard","2","40","LP","5.5010771219302","215.881","221.389","221.735","5.854","0.346","3","285",NA
"111","R_33CgdCHaxJxQkfs","standard","2","41","LP","2.15079707022835","222.74","224.892","225.288","2.548","0.396","3","288",NA
"112","R_33CgdCHaxJxQkfs","standard","2","42","LP","5.5010771219302","226.293","231.796","232.234","5.941","0.438","3","291",NA
"113","R_33CgdCHaxJxQkfs","standard","2","43","LP","1.25738905644119","233.237","234.501","234.839","1.602","0.338","3","294",NA
"114","R_33CgdCHaxJxQkfs","standard","2","44","LP","2.15079707022835","235.846","237.997","238.342","2.496","0.345","3","297",NA
"115","R_33CgdCHaxJxQkfs","standard","2","45","LP","5.5010771219302","239.349","244.852","245.193","5.844","0.341","3","300",NA
"116","R_33CgdCHaxJxQkfs","standard","2","46","LP","2.15079707022835","246.196","248.349","248.752","2.556","0.403","3","303",NA
"117","R_33CgdCHaxJxQkfs","standard","2","47","LP","13.0392072382594","249.766","NaN","259.343","9.577","NaN","0","303",NA
"118","R_33CgdCHaxJxQkfs","standard","2","48","LP","3.49090909090909","260.348","263.844","264.216","3.868","0.372","3","306",NA
"119","R_33CgdCHaxJxQkfs","standard","2","49","LP","13.0392072382594","265.221","NaN","275.467","10.246","NaN","0","306",NA
"120","R_33CgdCHaxJxQkfs","standard","2","50","LP","3.49090909090909","276.468","279.964","280.334","3.866","0.37","3","309",NA
"121","R_33CgdCHaxJxQkfs","standard","2","51","LP","0.661783713916415","281.341","282.005","282.351","1.01","0.346","3","312",NA
"122","R_33CgdCHaxJxQkfs","standard","2","52","LP","1.25738905644119","283.356","284.615","285.038","1.682","0.423","3","315",NA
"123","R_33CgdCHaxJxQkfs","standard","2","53","LP","2.15079707022835","286.045","288.198","288.557","2.512","0.359","3","318",NA
"124","R_33CgdCHaxJxQkfs","standard","2","54","LP","30","289.564","NaN","299.942","10.378","NaN","0","318",NA
"125","R_33CgdCHaxJxQkfs","standard","2","55","LP","2.15079707022835","300.949","303.103",NA,"3.161",NA,"0","318",NA
"126","R_33CgdCHaxJxQkfs","standard","2","56","LP","30","305.114","NaN","313.697","8.583","NaN","0","318",NA
"127","R_33CgdCHaxJxQkfs","standard","2","57","LP","19.8235243429556","314.7","334.525","334.924","20.224","0.399","3","321",NA
"128","R_33CgdCHaxJxQkfs","standard","2","58","LP","13.0392072382594","335.93","NaN","343.944","8.014","NaN","0","321",NA
"129","R_33CgdCHaxJxQkfs","standard","2","59","LP","8.51632916846187","344.949","353.468","354.048","9.099","0.58","3","324",NA
"130","R_33CgdCHaxJxQkfs","standard","2","60","LP","1.25738905644119","355.058","356.317",NA,"2.267",NA,"0","324",NA
"131","R_33CgdCHaxJxQkfs","standard","2","61","LP","3.49090909090909","358.329","361.821","362.203","3.874","0.382","3","327",NA
"132","R_33CgdCHaxJxQkfs","standard","2","62","LP","13.0392072382594","363.206","NaN","372.621","9.415","NaN","0","327",NA
"133","R_33CgdCHaxJxQkfs","standard","2","63","LP","8.51632916846187","373.628","382.146","382.483","8.855","0.337","3","330",NA
"134","R_33CgdCHaxJxQkfs","standard","2","64","LP","13.0392072382594","383.484","396.525","396.832","13.348","0.307","3","333",NA
"135","R_33CgdCHaxJxQkfs","standard","2","65","LP","0.264713485566566","397.837","398.115","398.724","0.887","0.609","3","336",NA
"136","R_33CgdCHaxJxQkfs","standard","2","66","LP","3.49090909090909","399.728","403.22","403.536","3.808","0.316","3","339",NA
"137","R_33CgdCHaxJxQkfs","standard","2","67","LP","19.8235243429556","404.541","NaN","414.184","9.643","NaN","0","339",NA
"138","R_33CgdCHaxJxQkfs","standard","2","68","LP","1.25738905644119","415.204","416.469","416.834","1.63","0.365","3","342",NA
"139","R_33CgdCHaxJxQkfs","standard","2","69","LP","0.661783713916415","417.836","418.501","418.844","1.008","0.343","3","345",NA
"140","R_33CgdCHaxJxQkfs","standard","2","70","LP","2.15079707022835","419.852","422.005","422.354","2.502","0.349","3","348",NA
"141","R_33CgdCHaxJxQkfs","standard","2","71","LP","1.25738905644119","423.356","424.621","425.079","1.723","0.458","3","351",NA
"142","R_33CgdCHaxJxQkfs","standard","2","72","LP","3.49090909090909","426.09","429.589","429.918","3.828","0.329","3","354",NA
"143","R_33CgdCHaxJxQkfs","standard","2","73","LP","1.25738905644119","430.924","432.191","432.543","1.619","0.352","3","357",NA
"144","R_33CgdCHaxJxQkfs","standard","2","74","LP","2.15079707022835","433.544","435.701","436.213","2.669","0.512","3","360",NA
"145","R_33CgdCHaxJxQkfs","standard","2","75","LP","2.15079707022835","437.22","439.373","439.714","2.494","0.341","3","363",NA
"146","R_33CgdCHaxJxQkfs","standard","2","76","LP","19.8235243429556","440.718","NaN","450.333","9.615","NaN","0","363",NA
"147","R_33CgdCHaxJxQkfs","standard","2","77","LP","30","451.34","NaN","461.233","9.893","NaN","0","363",NA
"148","R_33CgdCHaxJxQkfs","standard","2","78","LP","30","462.237","NaN","473.822","11.585","NaN","0","363",NA
"149","R_33CgdCHaxJxQkfs","standard","2","79","LP","19.8235243429556","474.826","NaN","487.517","12.691","NaN","0","363",NA
"150","R_33CgdCHaxJxQkfs","standard","2","80","LP","8.51632916846187","488.524","497.042","497.463","8.939","0.421","3","366",NA
"151","R_33CgdCHaxJxQkfs","standard","2","81","LP","13.0392072382594","498.475","511.521","512","13.525","0.479","3","369",NA
"152","R_33CgdCHaxJxQkfs","standard","2","82","LP","0.264713485566566","513.001","513.277","513.76","0.759","0.483","3","372",NA
"153","R_33CgdCHaxJxQkfs","standard","2","83","LP","5.5010771219302","514.765","520.268","520.638","5.873","0.37","3","375",NA
"154","R_33CgdCHaxJxQkfs","standard","2","84","LP","3.49090909090909","521.645","525.14","525.523","3.878","0.383","3","378",NA
"155","R_33CgdCHaxJxQkfs","standard","2","85","LP","0.264713485566566","526.525","526.797","527.223","0.698","0.426","3","381",NA
"156","R_33CgdCHaxJxQkfs","standard","2","86","LP","0.661783713916415","528.225","528.892","529.37","1.145","0.478","3","384",NA
"157","R_33CgdCHaxJxQkfs","standard","2","87","LP","5.5010771219302","530.373","535.88","536.673","6.3","0.793","3","387",NA
"158","R_33CgdCHaxJxQkfs","standard","2","88","LP","8.51632916846187","537.677","546.197","546.587","8.91","0.39","3","390",NA
"159","R_33CgdCHaxJxQkfs","standard","2","89","LP","0.264713485566566","547.589","547.871","548.309","0.72","0.438","3","393",NA
"160","R_33CgdCHaxJxQkfs","standard","2","90","LP","2.15079707022835","549.314","551.47","551.892","2.578","0.422","3","396",NA
"161","R_33CgdCHaxJxQkfs","standard","2","91","LP","1.25738905644119","552.901","554.164","554.63","1.729","0.466","3","399",NA
"162","R_33CgdCHaxJxQkfs","standard","2","92","LP","2.15079707022835","555.637","557.79","558.162","2.525","0.372","3","402",NA
"163","R_33CgdCHaxJxQkfs","standard","2","93","LP","0.264713485566566","559.165","559.437","559.866","0.701","0.429","3","405",NA
"164","R_33CgdCHaxJxQkfs","standard","2","94","LP","5.5010771219302","560.87","566.373","566.759","5.889","0.386","3","408",NA
"165","R_33CgdCHaxJxQkfs","standard","2","95","LP","13.0392072382594","567.78","NaN","577.693","9.913","NaN","0","408",NA
"166","R_33CgdCHaxJxQkfs","standard","2","96","LP","0.661783713916415","578.7","579.364",NA,"1.673",NA,"0","408",NA
"167","R_33CgdCHaxJxQkfs","standard","2","97","LP","8.51632916846187","581.381","NaN","586.494","5.113","NaN","0","408",NA
"168","R_33CgdCHaxJxQkfs","standard","2","98","LP","3.49090909090909","587.504","591.003","591.35","3.846","0.347","3","411",NA
"169","R_33CgdCHaxJxQkfs","standard","2","99","LP","0.661783713916415","592.356","593.02","593.451","1.095","0.431","3","414",NA
"170","R_33CgdCHaxJxQkfs","standard","2","100","LP","2.15079707022835","594.454","596.614","596.949","2.495","0.335","3","417",NA
