"","subject_id","condition","n_block","n_trialIdx","f_timing_condition","n_scheduled_delay","n_trial_start_time","n_rewarded_time_fin","n_sell_time_fin","n_time_waited_fin","RT_fin","n_trial_earnings_fin","n_total_earnings_fin","keypress_times"
"1","R_3EuwMUdFh3gqeX0","standard","1","1","LP","0.661783713916415","0.004","0.68","NA","1.683","NA","0","0",""
"2","R_3EuwMUdFh3gqeX0","standard","1","2","LP","8.51632916846187","2.708","11.232","11.562","8.854","0.33","3","3",""
"3","R_3EuwMUdFh3gqeX0","standard","1","3","LP","5.5010771219302","12.566","18.074","18.381","5.815","0.307","3","6",""
"4","R_3EuwMUdFh3gqeX0","standard","1","4","LP","3.49090909090909","19.389","22.885","23.241","3.852","0.356","3","9",""
"5","R_3EuwMUdFh3gqeX0","standard","1","5","LP","0.264713485566566","24.255","24.521","25.041","0.786","0.52","3","12",""
"6","R_3EuwMUdFh3gqeX0","standard","1","6","LP","1.25738905644119","26.046","27.311","27.686","1.64","0.375","3","15",""
"7","R_3EuwMUdFh3gqeX0","standard","1","7","LP","8.51632916846187","28.698","37.227","37.507","8.809","0.28","3","18",""
"8","R_3EuwMUdFh3gqeX0","standard","1","8","LP","1.25738905644119","38.516","39.782","40.152","1.636","0.37","3","21",""
"9","R_3EuwMUdFh3gqeX0","standard","1","9","LP","2.15079707022835","41.171","43.327","43.696","2.525","0.369","3","24",""
"10","R_3EuwMUdFh3gqeX0","standard","1","10","LP","13.0392072382594","44.709","57.766","58.113","13.404","0.347","3","27",""
"11","R_3EuwMUdFh3gqeX0","standard","1","11","LP","0.264713485566566","59.122","59.403","59.887","0.765","0.484","3","30",""
"12","R_3EuwMUdFh3gqeX0","standard","1","12","LP","30","60.906","90.912","91.314","30.408","0.402","3","33",""
"13","R_3EuwMUdFh3gqeX0","standard","1","13","LP","30","92.317","122.324","122.688","30.371","0.364","3","36",""
"14","R_3EuwMUdFh3gqeX0","standard","1","14","LP","30","123.706","153.712","154.065","30.359","0.353","3","39",""
"15","R_3EuwMUdFh3gqeX0","standard","1","15","LP","19.8235243429556","155.083","174.919","175.561","20.478","0.642","3","39","8700"
"16","R_3EuwMUdFh3gqeX0","standard","1","16","LP","0.264713485566566","176.571","176.841","177.309","0.738","0.468","3","42",""
"17","R_3EuwMUdFh3gqeX0","standard","1","17","LP","30","178.313","208.318","208.776","30.463","0.458","3","45",""
"18","R_3EuwMUdFh3gqeX0","standard","1","18","LP","0.264713485566566","209.787","210.068","210.517","0.73","0.449","3","48",""
"19","R_3EuwMUdFh3gqeX0","standard","1","19","LP","3.49090909090909","211.521","215.013","215.43","3.909","0.417","3","51",""
"20","R_3EuwMUdFh3gqeX0","standard","1","20","LP","13.0392072382594","216.434","229.488","229.879","13.445","0.391","3","54",""
"21","R_3EuwMUdFh3gqeX0","standard","1","21","LP","5.5010771219302","230.889","236.401","236.852","5.963","0.451","3","57",""
"22","R_3EuwMUdFh3gqeX0","standard","1","22","LP","0.264713485566566","237.872","238.147","238.548","0.676","0.401","3","60",""
"23","R_3EuwMUdFh3gqeX0","standard","1","23","LP","1.25738905644119","239.559","240.826","241.302","1.743","0.476","3","63",""
"24","R_3EuwMUdFh3gqeX0","standard","1","24","LP","0.661783713916415","242.313","242.979","243.332","1.019","0.353","3","66",""
"25","R_3EuwMUdFh3gqeX0","standard","1","25","LP","1.25738905644119","244.349","245.618","246.012","1.663","0.394","3","69",""
"26","R_3EuwMUdFh3gqeX0","standard","1","26","LP","8.51632916846187","247.023","255.556","255.942","8.919","0.386","3","72",""
"27","R_3EuwMUdFh3gqeX0","standard","1","27","LP","3.49090909090909","256.957","260.479","NA","4.525","NA","0","72",""
"28","R_3EuwMUdFh3gqeX0","standard","1","28","LP","19.8235243429556","262.497","282.334","282.928","20.431","0.594","3","75",""
"29","R_3EuwMUdFh3gqeX0","standard","1","29","LP","0.661783713916415","283.94","284.608","285.134","1.194","0.526","3","78",""
"30","R_3EuwMUdFh3gqeX0","standard","1","30","LP","5.5010771219302","286.146","291.653","292.229","6.083","0.576","3","81",""
"31","R_3EuwMUdFh3gqeX0","standard","1","31","LP","8.51632916846187","293.243","301.775","302.168","8.925","0.393","3","84",""
"32","R_3EuwMUdFh3gqeX0","standard","1","32","LP","13.0392072382594","303.178","316.22","316.622","13.444","0.402","3","87",""
"33","R_3EuwMUdFh3gqeX0","standard","1","33","LP","2.15079707022835","317.624","319.781","320.293","2.669","0.512","3","90",""
"34","R_3EuwMUdFh3gqeX0","standard","1","34","LP","13.0392072382594","321.311","334.355","334.813","13.502","0.458","3","93",""
"35","R_3EuwMUdFh3gqeX0","standard","1","35","LP","13.0392072382594","335.822","348.879","349.269","13.447","0.39","3","96",""
"36","R_3EuwMUdFh3gqeX0","standard","1","36","LP","2.15079707022835","350.277","352.437","352.891","2.614","0.454","3","99",""
"37","R_3EuwMUdFh3gqeX0","standard","1","37","LP","2.15079707022835","353.906","356.06","356.532","2.626","0.472","3","102",""
"38","R_3EuwMUdFh3gqeX0","standard","1","38","LP","8.51632916846187","357.534","366.062","366.471","8.937","0.409","3","105",""
"39","R_3EuwMUdFh3gqeX0","standard","1","39","LP","19.8235243429556","367.477","387.318","387.735","20.258","0.417","3","108",""
"40","R_3EuwMUdFh3gqeX0","standard","1","40","LP","8.51632916846187","388.741","397.271","397.982","9.241","0.711","3","111",""
"41","R_3EuwMUdFh3gqeX0","standard","1","41","LP","8.51632916846187","399.006","407.529","407.959","8.953","0.43","3","114",""
"42","R_3EuwMUdFh3gqeX0","standard","1","42","LP","13.0392072382594","408.969","422.017","422.488","13.519","0.471","3","117",""
"43","R_3EuwMUdFh3gqeX0","standard","1","43","LP","19.8235243429556","423.503","443.344","443.842","20.339","0.498","3","120",""
"44","R_3EuwMUdFh3gqeX0","standard","1","44","LP","3.49090909090909","444.858","448.363","NA","4.508","NA","0","120",""
"45","R_3EuwMUdFh3gqeX0","standard","1","45","LP","2.15079707022835","450.383","452.54","453.004","2.621","0.464","3","123",""
"46","R_3EuwMUdFh3gqeX0","standard","1","46","LP","30","454.01","484.023","484.407","30.397","0.384","3","126",""
"47","R_3EuwMUdFh3gqeX0","standard","1","47","LP","19.8235243429556","485.419","505.265","505.736","20.317","0.471","3","129",""
"48","R_3EuwMUdFh3gqeX0","standard","1","48","LP","0.264713485566566","506.743","507.011","507.52","0.777","0.509","3","132",""
"49","R_3EuwMUdFh3gqeX0","standard","1","49","LP","0.661783713916415","508.533","509.197","509.573","1.04","0.376","3","135",""
"50","R_3EuwMUdFh3gqeX0","standard","1","50","LP","3.49090909090909","510.599","514.104","514.589","3.99","0.485","3","138",""
"51","R_3EuwMUdFh3gqeX0","standard","1","51","LP","8.51632916846187","515.609","524.124","524.636","9.027","0.512","3","141",""
"52","R_3EuwMUdFh3gqeX0","standard","1","52","LP","0.264713485566566","525.659","525.926","NA","1.275","NA","0","141",""
"53","R_3EuwMUdFh3gqeX0","standard","1","53","LP","1.25738905644119","527.94","529.216","529.635","1.695","0.419","3","144",""
"54","R_3EuwMUdFh3gqeX0","standard","1","54","LP","2.15079707022835","530.652","532.806","533.227","2.575","0.421","3","147",""
"55","R_3EuwMUdFh3gqeX0","standard","1","55","LP","8.51632916846187","534.231","542.761","543.184","8.953","0.423","3","150",""
"56","R_3EuwMUdFh3gqeX0","standard","1","56","LP","13.0392072382594","544.211","557.266","557.909","13.698","0.643","3","153",""
"57","R_3EuwMUdFh3gqeX0","standard","1","57","LP","30","558.921","588.931","589.356","30.435","0.425","3","156",""
"58","R_3EuwMUdFh3gqeX0","standard","1","58","LP","30","590.366","620.372","620.84","30.474","0.468","3","159",""
"59","R_3EuwMUdFh3gqeX0","standard","1","59","LP","1.25738905644119","621.842","623.109","623.652","1.81","0.543","3","162",""
"60","R_3EuwMUdFh3gqeX0","standard","1","60","LP","0.264713485566566","624.661","624.932","625.366","0.705","0.434","3","165",""
"61","R_3EuwMUdFh3gqeX0","standard","1","61","LP","30","626.383","656.404","656.855","30.472","0.451","3","168",""
"62","R_3EuwMUdFh3gqeX0","standard","1","62","LP","8.51632916846187","657.859","666.376","666.869","9.01","0.493","3","171",""
"63","R_3EuwMUdFh3gqeX0","standard","1","63","LP","0.661783713916415","667.878","668.546","669.213","1.335","0.667","3","174",""
"64","R_3EuwMUdFh3gqeX0","standard","1","64","LP","5.5010771219302","670.216","675.728","676.196","5.98","0.468","3","177",""
"65","R_3EuwMUdFh3gqeX0","standard","1","65","LP","19.8235243429556","677.212","697.049","697.545","20.333","0.496","3","180",""
"66","R_3EuwMUdFh3gqeX0","standard","1","66","LP","3.49090909090909","698.551","702.042","702.662","4.111","0.62","3","183",""
"67","R_3EuwMUdFh3gqeX0","standard","1","67","LP","0.661783713916415","703.669","704.346","704.9","1.231","0.554","3","186",""
"68","R_3EuwMUdFh3gqeX0","standard","1","68","LP","3.49090909090909","705.914","709.421","709.91","3.996","0.489","3","189",""
"69","R_3EuwMUdFh3gqeX0","standard","1","69","LP","1.25738905644119","710.927","712.195","712.678","1.751","0.483","3","192",""
"70","R_3EuwMUdFh3gqeX0","standard","1","70","LP","30","713.696","743.702","744.108","30.412","0.406","3","192","428"
"71","R_3EuwMUdFh3gqeX0","standard","1","71","LP","19.8235243429556","745.125","764.959","765.503","20.378","0.544","3","195",""
"72","R_3EuwMUdFh3gqeX0","standard","1","72","LP","1.25738905644119","766.536","767.797","768.291","1.755","0.494","3","198",""
"73","R_3EuwMUdFh3gqeX0","standard","1","73","LP","19.8235243429556","769.301","789.127","789.764","20.463","0.637","3","201",""
"74","R_3EuwMUdFh3gqeX0","standard","1","74","LP","8.51632916846187","790.775","799.306","799.849","9.074","0.543","3","204",""
"75","R_3EuwMUdFh3gqeX0","standard","1","75","LP","8.51632916846187","800.877","809.394","809.861","8.984","0.467","3","207",""
"76","R_3EuwMUdFh3gqeX0","standard","1","76","LP","8.51632916846187","810.863","819.393","819.815","8.952","0.422","3","210",""
"77","R_3EuwMUdFh3gqeX0","standard","1","77","LP","5.5010771219302","820.83","826.341","826.899","6.069","0.558","3","213",""
"78","R_3EuwMUdFh3gqeX0","standard","1","78","LP","3.49090909090909","827.908","831.417","831.877","3.969","0.46","3","216",""
"79","R_3EuwMUdFh3gqeX0","standard","1","79","LP","8.51632916846187","832.884","841.403","841.771","8.887","0.368","3","219",""
"80","R_3EuwMUdFh3gqeX0","standard","1","80","LP","3.49090909090909","842.787","846.292","846.764","3.977","0.472","3","222",""
"81","R_3EuwMUdFh3gqeX0","standard","1","81","LP","0.264713485566566","847.775","848.047","848.741","0.966","0.694","3","225",""
"82","R_3EuwMUdFh3gqeX0","standard","1","82","LP","0.661783713916415","849.749","850.418","850.892","1.143","0.474","3","228",""
"83","R_3EuwMUdFh3gqeX0","standard","1","83","LP","8.51632916846187","851.905","860.437","860.955","9.05","0.518","3","231",""
"84","R_3EuwMUdFh3gqeX0","standard","1","84","LP","2.15079707022835","861.959","864.112","864.547","2.588","0.435","3","234",""
"85","R_3EuwMUdFh3gqeX0","standard","1","85","LP","2.15079707022835","865.564","867.718","868.34","2.776","0.622","3","237",""
"86","R_3EuwMUdFh3gqeX0","standard","1","86","LP","2.15079707022835","869.354","871.528","871.989","2.635","0.461","3","240",""
"87","R_3EuwMUdFh3gqeX0","standard","1","87","LP","8.51632916846187","873.011","881.531","882.336","9.325","0.805","3","243",""
"88","R_3EuwMUdFh3gqeX0","standard","1","88","LP","0.264713485566566","883.349","883.616","884.012","0.663","0.396","3","246",""
"89","R_3EuwMUdFh3gqeX0","standard","1","89","LP","0.264713485566566","885.029","885.316","885.676","0.647","0.36","3","249",""
"90","R_3EuwMUdFh3gqeX0","standard","1","90","LP","1.25738905644119","886.693","887.957","888.499","1.806","0.542","3","252",""
"91","R_3EuwMUdFh3gqeX0","standard","2","1","LP","0.661783713916415","0","0.664",NA,"1.667",NA,"0","252",NA
"92","R_3EuwMUdFh3gqeX0","standard","2","2","LP","8.51632916846187","2.683","11.215","11.686","9.003","0.471","3","255",NA
"93","R_3EuwMUdFh3gqeX0","standard","2","3","LP","0.264713485566566","12.703","12.987","13.507","0.804","0.52","3","258",NA
"94","R_3EuwMUdFh3gqeX0","standard","2","4","LP","13.0392072382594","14.522","NaN","18.932","4.41","NaN","0","258",NA
"95","R_3EuwMUdFh3gqeX0","standard","2","5","LP","30","19.935","NaN","28.181","8.246","NaN","0","258",NA
"96","R_3EuwMUdFh3gqeX0","standard","2","6","LP","0.661783713916415","29.202","29.87","30.315","1.113","0.445","3","261",NA
"97","R_3EuwMUdFh3gqeX0","standard","2","7","LP","5.5010771219302","31.322","36.827","37.243","5.921","0.416","3","264",NA
"98","R_3EuwMUdFh3gqeX0","standard","2","8","LP","5.5010771219302","38.252","43.756","44.118","5.866","0.362","3","267",NA
"99","R_3EuwMUdFh3gqeX0","standard","2","9","LP","19.8235243429556","45.129","NaN","54.605","9.476","NaN","0","267",NA
"100","R_3EuwMUdFh3gqeX0","standard","2","10","LP","30","55.617","NaN","62.532","6.915","NaN","0","267",NA
"101","R_3EuwMUdFh3gqeX0","standard","2","11","LP","0.264713485566566","63.548","63.816","64.275","0.727","0.459","3","270",NA
"102","R_3EuwMUdFh3gqeX0","standard","2","12","LP","1.25738905644119","65.285","66.558","66.973","1.688","0.415","3","273",NA
"103","R_3EuwMUdFh3gqeX0","standard","2","13","LP","5.5010771219302","67.975","NaN","72.505","4.53","NaN","0","273",NA
"104","R_3EuwMUdFh3gqeX0","standard","2","14","LP","8.51632916846187","73.518","NaN","78.133","4.615","NaN","0","273",NA
"105","R_3EuwMUdFh3gqeX0","standard","2","15","LP","8.51632916846187","79.147","87.677","88.09","8.943","0.413","3","276",NA
"106","R_3EuwMUdFh3gqeX0","standard","2","16","LP","13.0392072382594","89.111","NaN","99.892","10.781","NaN","0","276",NA
"107","R_3EuwMUdFh3gqeX0","standard","2","17","LP","2.15079707022835","100.9","103.073","103.482","2.582","0.409","3","279",NA
"108","R_3EuwMUdFh3gqeX0","standard","2","18","LP","1.25738905644119","104.493","105.755","106.21","1.717","0.455","3","282",NA
"109","R_3EuwMUdFh3gqeX0","standard","2","19","LP","0.264713485566566","107.215","107.496","107.956","0.741","0.46","3","285",NA
"110","R_3EuwMUdFh3gqeX0","standard","2","20","LP","30","108.964","NaN","115.297","6.333","NaN","0","285",NA
"111","R_3EuwMUdFh3gqeX0","standard","2","21","LP","19.8235243429556","116.315","NaN","128.354","12.039","NaN","0","285",NA
"112","R_3EuwMUdFh3gqeX0","standard","2","22","LP","2.15079707022835","129.371","131.538","132.09","2.719","0.552","3","288",NA
"113","R_3EuwMUdFh3gqeX0","standard","2","23","LP","2.15079707022835","133.11","135.283","135.61","2.5","0.327","3","291",NA
"114","R_3EuwMUdFh3gqeX0","standard","2","24","LP","19.8235243429556","136.619","NaN","141.268","4.649","NaN","0","291",NA
"115","R_3EuwMUdFh3gqeX0","standard","2","25","LP","0.661783713916415","142.279","142.95","143.371","1.092","0.421","3","294",NA
"116","R_3EuwMUdFh3gqeX0","standard","2","26","LP","30","144.383","NaN","149.203","4.82","NaN","0","294",NA
"117","R_3EuwMUdFh3gqeX0","standard","2","27","LP","3.49090909090909","150.211","153.717","154.163","3.952","0.446","3","297",NA
"118","R_3EuwMUdFh3gqeX0","standard","2","28","LP","13.0392072382594","155.164","NaN","160.923","5.759","NaN","0","297",NA
"119","R_3EuwMUdFh3gqeX0","standard","2","29","LP","2.15079707022835","161.947","164.11","164.554","2.607","0.444","3","300",NA
"120","R_3EuwMUdFh3gqeX0","standard","2","30","LP","19.8235243429556","165.558","NaN","171.019","5.461","NaN","0","300",NA
"121","R_3EuwMUdFh3gqeX0","standard","2","31","LP","30","172.023","NaN","177.074","5.051","NaN","0","300",NA
"122","R_3EuwMUdFh3gqeX0","standard","2","32","LP","30","178.08","NaN","183.771","5.691","NaN","0","300",NA
"123","R_3EuwMUdFh3gqeX0","standard","2","33","LP","5.5010771219302","184.793","190.303","190.755","5.962","0.452","3","303",NA
"124","R_3EuwMUdFh3gqeX0","standard","2","34","LP","2.15079707022835","191.756","193.91","194.3","2.544","0.39","3","306",NA
"125","R_3EuwMUdFh3gqeX0","standard","2","35","LP","13.0392072382594","195.31","NaN","205.597","10.287","NaN","0","306",NA
"126","R_3EuwMUdFh3gqeX0","standard","2","36","LP","0.661783713916415","206.615","207.3","207.914","1.299","0.614","3","309",NA
"127","R_3EuwMUdFh3gqeX0","standard","2","37","LP","0.661783713916415","208.923","209.604","209.969","1.046","0.365","3","312",NA
"128","R_3EuwMUdFh3gqeX0","standard","2","38","LP","19.8235243429556","210.975","NaN","219.868","8.893","NaN","0","312",NA
"129","R_3EuwMUdFh3gqeX0","standard","2","39","LP","8.51632916846187","220.877","229.407","229.779","8.902","0.372","3","315",NA
"130","R_3EuwMUdFh3gqeX0","standard","2","40","LP","5.5010771219302","230.794","236.303","236.74","5.946","0.437","3","318",NA
"131","R_3EuwMUdFh3gqeX0","standard","2","41","LP","30","237.753","NaN","247.436","9.683","NaN","0","318",NA
"132","R_3EuwMUdFh3gqeX0","standard","2","42","LP","0.264713485566566","248.446","248.714","249.242","0.796","0.528","3","321",NA
"133","R_3EuwMUdFh3gqeX0","standard","2","43","LP","0.264713485566566","250.249","250.52","250.914","0.665","0.394","3","324",NA
"134","R_3EuwMUdFh3gqeX0","standard","2","44","LP","2.15079707022835","251.917","254.089","254.458","2.541","0.369","3","327",NA
"135","R_3EuwMUdFh3gqeX0","standard","2","45","LP","2.15079707022835","255.475","NaN","257.347","1.872","NaN","0","327",NA
"136","R_3EuwMUdFh3gqeX0","standard","2","46","LP","30","258.356","288.386","288.809","30.453","0.423","3","330",NA
"137","R_3EuwMUdFh3gqeX0","standard","2","47","LP","5.5010771219302","289.819","295.327","295.697","5.878","0.37","3","333",NA
"138","R_3EuwMUdFh3gqeX0","standard","2","48","LP","3.49090909090909","296.717","300.217","300.603","3.886","0.386","3","336",NA
"139","R_3EuwMUdFh3gqeX0","standard","2","49","LP","2.15079707022835","301.625","303.782","304.193","2.568","0.411","3","339",NA
"140","R_3EuwMUdFh3gqeX0","standard","2","50","LP","2.15079707022835","305.218","307.386","307.817","2.599","0.431","3","342",NA
"141","R_3EuwMUdFh3gqeX0","standard","2","51","LP","13.0392072382594","308.832","321.884","321.987","13.155","0.103","3","345",NA
"142","R_3EuwMUdFh3gqeX0","standard","2","52","LP","8.51632916846187","323","331.521","331.98","8.98","0.459","3","348",NA
"143","R_3EuwMUdFh3gqeX0","standard","2","53","LP","3.49090909090909","333.002","336.509","337.135","4.133","0.626","3","351",NA
"144","R_3EuwMUdFh3gqeX0","standard","2","54","LP","2.15079707022835","338.146","340.3","340.704","2.558","0.404","3","354",NA
"145","R_3EuwMUdFh3gqeX0","standard","2","55","LP","19.8235243429556","341.718","NaN","355.637","13.919","NaN","0","354",NA
"146","R_3EuwMUdFh3gqeX0","standard","2","56","LP","1.25738905644119","356.648","357.921","358.466","1.818","0.545","3","357",NA
"147","R_3EuwMUdFh3gqeX0","standard","2","57","LP","5.5010771219302","359.47","364.995","365.457","5.987","0.462","3","360",NA
"148","R_3EuwMUdFh3gqeX0","standard","2","58","LP","5.5010771219302","366.467","371.992","372.371","5.904","0.379","3","363",NA
"149","R_3EuwMUdFh3gqeX0","standard","2","59","LP","8.51632916846187","373.395","381.915","382.377","8.982","0.462","3","366",NA
"150","R_3EuwMUdFh3gqeX0","standard","2","60","LP","13.0392072382594","383.382","396.44","396.94","13.558","0.5","3","369",NA
"151","R_3EuwMUdFh3gqeX0","standard","2","61","LP","13.0392072382594","397.948","411","411.405","13.457","0.405","3","372",NA
"152","R_3EuwMUdFh3gqeX0","standard","2","62","LP","3.49090909090909","412.425","415.928","416.386","3.961","0.458","3","375",NA
"153","R_3EuwMUdFh3gqeX0","standard","2","63","LP","8.51632916846187","417.41","425.938","426.349","8.939","0.411","3","378",NA
"154","R_3EuwMUdFh3gqeX0","standard","2","64","LP","1.25738905644119","427.362","428.621","429.066","1.704","0.445","3","381",NA
"155","R_3EuwMUdFh3gqeX0","standard","2","65","LP","30","430.084","NaN","445.123","15.039","NaN","0","381",NA
"156","R_3EuwMUdFh3gqeX0","standard","2","66","LP","30","446.133","NaN","461.779","15.646","NaN","0","381",NA
"157","R_3EuwMUdFh3gqeX0","standard","2","67","LP","0.661783713916415","462.795","463.482","464.104","1.309","0.622","3","384",NA
"158","R_3EuwMUdFh3gqeX0","standard","2","68","LP","5.5010771219302","465.118","NaN","465.976","0.858","NaN","0","384",NA
"159","R_3EuwMUdFh3gqeX0","standard","2","69","LP","19.8235243429556","466.985","NaN","480.866","13.881","NaN","0","384",NA
"160","R_3EuwMUdFh3gqeX0","standard","2","70","LP","0.264713485566566","481.882","482.15","482.632","0.75","0.482","3","387",NA
"161","R_3EuwMUdFh3gqeX0","standard","2","71","LP","19.8235243429556","483.64","NaN","500.723","17.083","NaN","0","387",NA
"162","R_3EuwMUdFh3gqeX0","standard","2","72","LP","1.25738905644119","501.725","502.983","503.026","1.301","0.043","3","390",NA
"163","R_3EuwMUdFh3gqeX0","standard","2","73","LP","30","504.029","NaN","516.138","12.109","NaN","0","390",NA
"164","R_3EuwMUdFh3gqeX0","standard","2","74","LP","30","517.144","NaN","533.532","16.388","NaN","0","390",NA
"165","R_3EuwMUdFh3gqeX0","standard","2","75","LP","1.25738905644119","534.542","535.811","536.306","1.764","0.495","3","393",NA
"166","R_3EuwMUdFh3gqeX0","standard","2","76","LP","0.661783713916415","537.319","537.981","538.42","1.101","0.439","3","396",NA
"167","R_3EuwMUdFh3gqeX0","standard","2","77","LP","0.264713485566566","539.423","539.699","540.13","0.707","0.431","3","399",NA
"168","R_3EuwMUdFh3gqeX0","standard","2","78","LP","30","541.139","NaN","558.042","16.903","NaN","0","399",NA
"169","R_3EuwMUdFh3gqeX0","standard","2","79","LP","8.51632916846187","559.045","567.571","567.994","8.949","0.423","3","402",NA
"170","R_3EuwMUdFh3gqeX0","standard","2","80","LP","1.25738905644119","569.016","570.276","570.786","1.77","0.51","3","405",NA
"171","R_3EuwMUdFh3gqeX0","standard","2","81","LP","3.49090909090909","571.8","575.306","575.776","3.976","0.47","3","408",NA
"172","R_3EuwMUdFh3gqeX0","standard","2","82","LP","0.264713485566566","576.793","577.06","577.423","0.63","0.363","3","411",NA
"173","R_3EuwMUdFh3gqeX0","standard","2","83","LP","1.25738905644119","578.432","579.698","580.051","1.619","0.353","3","414",NA
"174","R_3EuwMUdFh3gqeX0","standard","2","84","LP","3.49090909090909","581.063","584.556","585.088","4.025","0.532","3","417",NA
"175","R_3EuwMUdFh3gqeX0","standard","2","85","LP","8.51632916846187","586.093","NaN","587.722","1.629","NaN","0","417",NA
