"","subject_id","condition","n_block","n_trialIdx","f_timing_condition","n_scheduled_delay","n_trial_start_time","n_rewarded_time_fin","n_sell_time_fin","n_time_waited_fin","RT_fin","n_trial_earnings_fin","n_total_earnings_fin","keypress_times"
"1","R_3e4PzqzwHkIiSBm","standard","1","1","LP","2.15079707022835","0.001","2.161","2.784","2.783","0.623","3","3",""
"2","R_3e4PzqzwHkIiSBm","standard","1","2","LP","0.661783713916415","3.792","4.462","4.912","1.12","0.45","3","6",""
"3","R_3e4PzqzwHkIiSBm","standard","1","3","LP","8.51632916846187","5.924","14.464","14.847","8.923","0.383","3","9",""
"4","R_3e4PzqzwHkIiSBm","standard","1","4","LP","0.661783713916415","15.865","16.533","16.976","1.111","0.443","3","12",""
"5","R_3e4PzqzwHkIiSBm","standard","1","5","LP","8.51632916846187","17.981","26.515","27.136","9.155","0.621","3","15",""
"6","R_3e4PzqzwHkIiSBm","standard","1","6","LP","2.15079707022835","28.137","30.301","NA","3.18","NA","0","15",""
"7","R_3e4PzqzwHkIiSBm","standard","1","7","LP","5.5010771219302","32.318","37.82","38.192","5.874","0.372","3","18",""
"8","R_3e4PzqzwHkIiSBm","standard","1","8","LP","3.49090909090909","39.203","42.704","43.183","3.98","0.479","3","21",""
"9","R_3e4PzqzwHkIiSBm","standard","1","9","LP","5.5010771219302","44.189","49.706","50.032","5.843","0.326","3","24",""
"10","R_3e4PzqzwHkIiSBm","standard","1","10","LP","30","51.037","81.044","81.44","30.403","0.396","3","27",""
"11","R_3e4PzqzwHkIiSBm","standard","1","11","LP","5.5010771219302","82.447","87.971","NA","6.54","NA","0","27",""
"12","R_3e4PzqzwHkIiSBm","standard","1","12","LP","1.25738905644119","90.003","91.272","91.663","1.66","0.391","3","30",""
"13","R_3e4PzqzwHkIiSBm","standard","1","13","LP","0.661783713916415","92.672","93.34","93.455","0.783","0.115","3","33",""
"14","R_3e4PzqzwHkIiSBm","standard","1","14","LP","5.5010771219302","94.471","99.989","100.575","6.104","0.586","3","36",""
"15","R_3e4PzqzwHkIiSBm","standard","1","15","LP","3.49090909090909","101.591","105.092","105.727","4.136","0.635","3","39",""
"16","R_3e4PzqzwHkIiSBm","standard","1","16","LP","0.264713485566566","106.737","107.008","107.423","0.686","0.415","3","42",""
"17","R_3e4PzqzwHkIiSBm","standard","1","17","LP","30","108.438","138.444","138.767","30.329","0.323","3","45",""
"18","R_3e4PzqzwHkIiSBm","standard","1","18","LP","0.264713485566566","139.786","140.053","140.879","1.093","0.826","3","48",""
"19","R_3e4PzqzwHkIiSBm","standard","1","19","LP","30","141.887","171.894","172.223","30.336","0.329","3","51",""
"20","R_3e4PzqzwHkIiSBm","standard","1","20","LP","0.264713485566566","173.232","173.51","173.902","0.67","0.392","3","54",""
"21","R_3e4PzqzwHkIiSBm","standard","1","21","LP","0.264713485566566","174.912","175.181","175.534","0.622","0.353","3","57",""
"22","R_3e4PzqzwHkIiSBm","standard","1","22","LP","2.15079707022835","176.54","178.696","179.182","2.642","0.486","3","60",""
"23","R_3e4PzqzwHkIiSBm","standard","1","23","LP","30","180.197","210.207","210.591","30.394","0.384","3","63",""
"24","R_3e4PzqzwHkIiSBm","standard","1","24","LP","3.49090909090909","211.606","215.107","215.726","4.12","0.619","3","66",""
"25","R_3e4PzqzwHkIiSBm","standard","1","25","LP","5.5010771219302","216.739","222.262","222.767","6.028","0.505","3","69",""
"26","R_3e4PzqzwHkIiSBm","standard","1","26","LP","5.5010771219302","223.778","229.295","229.87","6.092","0.575","3","72",""
"27","R_3e4PzqzwHkIiSBm","standard","1","27","LP","30","230.88","260.888","261.246","30.366","0.358","3","75",""
"28","R_3e4PzqzwHkIiSBm","standard","1","28","LP","3.49090909090909","262.258","265.775","266.206","3.948","0.431","3","78",""
"29","R_3e4PzqzwHkIiSBm","standard","1","29","LP","2.15079707022835","267.207","269.376","269.79","2.583","0.414","3","81",""
"30","R_3e4PzqzwHkIiSBm","standard","1","30","LP","3.49090909090909","270.807","274.308","274.67","3.863","0.362","3","84",""
"31","R_3e4PzqzwHkIiSBm","standard","1","31","LP","13.0392072382594","275.679","288.728","289.134","13.455","0.406","3","87",""
"32","R_3e4PzqzwHkIiSBm","standard","1","32","LP","5.5010771219302","290.143","295.652","296.094","5.951","0.442","3","90",""
"33","R_3e4PzqzwHkIiSBm","standard","1","33","LP","0.661783713916415","297.116","297.784","298.269","1.153","0.485","3","93",""
"34","R_3e4PzqzwHkIiSBm","standard","1","34","LP","13.0392072382594","299.285","312.334","312.766","13.481","0.432","3","96",""
"35","R_3e4PzqzwHkIiSBm","standard","1","35","LP","0.661783713916415","313.773","314.436","314.829","1.056","0.393","3","99",""
"36","R_3e4PzqzwHkIiSBm","standard","1","36","LP","8.51632916846187","315.858","324.392","324.814","8.956","0.422","3","102",""
"37","R_3e4PzqzwHkIiSBm","standard","1","37","LP","0.264713485566566","325.823","326.093","326.477","0.654","0.384","3","105",""
"38","R_3e4PzqzwHkIiSBm","standard","1","38","LP","0.264713485566566","327.492","327.778","328.669","1.177","0.891","3","108",""
"39","R_3e4PzqzwHkIiSBm","standard","1","39","LP","0.661783713916415","329.678","330.361","330.765","1.087","0.404","3","111",""
"40","R_3e4PzqzwHkIiSBm","standard","1","40","LP","0.264713485566566","331.778","332.045","332.429","0.651","0.384","3","114",""
"41","R_3e4PzqzwHkIiSBm","standard","1","41","LP","13.0392072382594","333.43","346.482","346.926","13.496","0.444","3","117",""
"42","R_3e4PzqzwHkIiSBm","standard","1","42","LP","13.0392072382594","347.935","360.987","361.342","13.407","0.355","3","120",""
"43","R_3e4PzqzwHkIiSBm","standard","1","43","LP","13.0392072382594","362.349","375.407","375.886","13.537","0.479","3","123",""
"44","R_3e4PzqzwHkIiSBm","standard","1","44","LP","5.5010771219302","376.906","382.408","382.797","5.891","0.389","3","126",""
"45","R_3e4PzqzwHkIiSBm","standard","1","45","LP","13.0392072382594","383.808","396.865","397.293","13.485","0.428","3","129",""
"46","R_3e4PzqzwHkIiSBm","standard","1","46","LP","30","398.313","428.322","428.717","30.404","0.395","3","132",""
"47","R_3e4PzqzwHkIiSBm","standard","1","47","LP","13.0392072382594","429.722","442.779","443.18","13.458","0.401","3","132","10179"
"48","R_3e4PzqzwHkIiSBm","standard","1","48","LP","3.49090909090909","444.195","447.696","448.077","3.882","0.381","3","135",""
"49","R_3e4PzqzwHkIiSBm","standard","1","49","LP","0.661783713916415","449.097","449.765","450.173","1.076","0.408","3","138",""
"50","R_3e4PzqzwHkIiSBm","standard","1","50","LP","1.25738905644119","451.182","452.444","452.86","1.678","0.416","3","141",""
"51","R_3e4PzqzwHkIiSBm","standard","1","51","LP","0.661783713916415","453.882","454.567","454.908","1.026","0.341","3","144",""
"52","R_3e4PzqzwHkIiSBm","standard","1","52","LP","30","455.914","485.922","486.349","30.435","0.427","3","147",""
"53","R_3e4PzqzwHkIiSBm","standard","1","53","LP","8.51632916846187","487.377","495.909","496.284","8.907","0.375","3","150",""
"54","R_3e4PzqzwHkIiSBm","standard","1","54","LP","13.0392072382594","497.294","510.335","510.893","13.599","0.558","3","153",""
"55","R_3e4PzqzwHkIiSBm","standard","1","55","LP","13.0392072382594","511.914","524.972","525.373","13.459","0.401","3","156",""
"56","R_3e4PzqzwHkIiSBm","standard","1","56","LP","8.51632916846187","526.387","534.92","535.453","9.066","0.533","3","159",""
"57","R_3e4PzqzwHkIiSBm","standard","1","57","LP","0.661783713916415","536.474","537.143","537.66","1.186","0.517","3","162",""
"58","R_3e4PzqzwHkIiSBm","standard","1","58","LP","0.661783713916415","538.674","539.344","539.804","1.13","0.46","3","165",""
"59","R_3e4PzqzwHkIiSBm","standard","1","59","LP","3.49090909090909","540.807","544.308","545.148","4.341","0.84","3","168",""
"60","R_3e4PzqzwHkIiSBm","standard","1","60","LP","13.0392072382594","546.161","559.212","560.188","14.027","0.976","3","171",""
"61","R_3e4PzqzwHkIiSBm","standard","1","61","LP","2.15079707022835","561.198","563.367","563.756","2.558","0.389","3","174",""
"62","R_3e4PzqzwHkIiSBm","standard","1","62","LP","19.8235243429556","564.767","584.604","585.18","20.413","0.576","3","177",""
"63","R_3e4PzqzwHkIiSBm","standard","1","63","LP","0.661783713916415","586.189","586.857","587.26","1.071","0.403","3","180",""
"64","R_3e4PzqzwHkIiSBm","standard","1","64","LP","0.661783713916415","588.274","588.943","589.324","1.05","0.381","3","183",""
"65","R_3e4PzqzwHkIiSBm","standard","1","65","LP","19.8235243429556","590.336","610.18","610.604","20.268","0.424","3","186",""
"66","R_3e4PzqzwHkIiSBm","standard","1","66","LP","3.49090909090909","611.615","615.114","615.531","3.916","0.417","3","189",""
"67","R_3e4PzqzwHkIiSBm","standard","1","67","LP","5.5010771219302","616.532","622.037","622.428","5.896","0.391","3","192",""
"68","R_3e4PzqzwHkIiSBm","standard","1","68","LP","3.49090909090909","623.436","626.932","627.419","3.983","0.487","3","195",""
"69","R_3e4PzqzwHkIiSBm","standard","1","69","LP","5.5010771219302","628.432","633.939","634.396","5.964","0.457","3","198",""
"70","R_3e4PzqzwHkIiSBm","standard","1","70","LP","13.0392072382594","635.418","648.475","648.94","13.522","0.465","3","201",""
"71","R_3e4PzqzwHkIiSBm","standard","1","71","LP","8.51632916846187","649.945","658.478","658.972","9.027","0.494","3","204",""
"72","R_3e4PzqzwHkIiSBm","standard","1","72","LP","2.15079707022835","659.994","662.163","662.795","2.801","0.632","3","207",""
"73","R_3e4PzqzwHkIiSBm","standard","1","73","LP","0.264713485566566","663.811","664.08","664.539","0.728","0.459","3","210",""
"74","R_3e4PzqzwHkIiSBm","standard","1","74","LP","0.661783713916415","665.542","666.212","666.635","1.093","0.423","3","213",""
"75","R_3e4PzqzwHkIiSBm","standard","1","75","LP","19.8235243429556","667.646","687.488","687.996","20.35","0.508","3","216",""
"76","R_3e4PzqzwHkIiSBm","standard","1","76","LP","30","689.019","719.027","719.403","30.384","0.376","3","219",""
"77","R_3e4PzqzwHkIiSBm","standard","1","77","LP","13.0392072382594","720.412","733.469","734.059","13.647","0.59","3","222",""
"78","R_3e4PzqzwHkIiSBm","standard","1","78","LP","5.5010771219302","735.07","740.586","NA","6.534","NA","0","222",""
"79","R_3e4PzqzwHkIiSBm","standard","1","79","LP","19.8235243429556","742.619","762.445","762.875","20.256","0.43","3","225",""
"80","R_3e4PzqzwHkIiSBm","standard","1","80","LP","30","763.877","793.886","794.267","30.39","0.381","3","228",""
"81","R_3e4PzqzwHkIiSBm","standard","1","81","LP","1.25738905644119","795.271","796.533","796.938","1.667","0.405","3","231",""
"82","R_3e4PzqzwHkIiSBm","standard","1","82","LP","2.15079707022835","797.94","800.104","800.506","2.566","0.402","3","234",""
"83","R_3e4PzqzwHkIiSBm","standard","1","83","LP","8.51632916846187","801.519","810.037","810.443","8.924","0.406","3","237",""
"84","R_3e4PzqzwHkIiSBm","standard","1","84","LP","3.49090909090909","811.459","814.978","815.466","4.007","0.488","3","240",""
"85","R_3e4PzqzwHkIiSBm","standard","1","85","LP","13.0392072382594","816.476","829.527","830.027","13.551","0.5","3","243",""
"86","R_3e4PzqzwHkIiSBm","standard","1","86","LP","1.25738905644119","831.034","832.297","832.714","1.68","0.417","3","246",""
"87","R_3e4PzqzwHkIiSBm","standard","1","87","LP","13.0392072382594","833.714","846.77","847.162","13.448","0.392","3","249",""
"88","R_3e4PzqzwHkIiSBm","standard","1","88","LP","0.264713485566566","848.171","848.436","848.81","0.639","0.374","3","252",""
"89","R_3e4PzqzwHkIiSBm","standard","1","89","LP","3.49090909090909","849.818","853.319","853.754","3.936","0.435","3","255",""
"90","R_3e4PzqzwHkIiSBm","standard","1","90","LP","30","854.772","884.781","885.194","30.422","0.413","3","258",""
"91","R_3e4PzqzwHkIiSBm","standard","1","91","LP","5.5010771219302","886.197","891.715","892.169","5.972","0.454","3","261",""
"92","R_3e4PzqzwHkIiSBm","standard","2","1","LP","3.49090909090909","0.001","3.499","4.217","4.216","0.718","3","264",NA
"93","R_3e4PzqzwHkIiSBm","standard","2","2","LP","2.15079707022835","5.23","7.384","7.913","2.683","0.529","3","267",NA
"94","R_3e4PzqzwHkIiSBm","standard","2","3","LP","0.661783713916415","8.916","NaN","9.529","0.613","NaN","0","267",NA
"95","R_3e4PzqzwHkIiSBm","standard","2","4","LP","5.5010771219302","10.538","NaN","15.098","4.56","NaN","0","267",NA
"96","R_3e4PzqzwHkIiSBm","standard","2","5","LP","3.49090909090909","16.103","19.603","20.025","3.922","0.422","3","270",NA
"97","R_3e4PzqzwHkIiSBm","standard","2","6","LP","30","21.034","NaN","25.61","4.576","NaN","0","270",NA
"98","R_3e4PzqzwHkIiSBm","standard","2","7","LP","8.51632916846187","26.621","NaN","33.705","7.084","NaN","0","270",NA
"99","R_3e4PzqzwHkIiSBm","standard","2","8","LP","3.49090909090909","34.708","NaN","35.946","1.238","NaN","0","270",NA
"100","R_3e4PzqzwHkIiSBm","standard","2","9","LP","8.51632916846187","36.946","NaN","39.561","2.615","NaN","0","270",NA
"101","R_3e4PzqzwHkIiSBm","standard","2","10","LP","5.5010771219302","40.578","NaN","43.577","2.999","NaN","0","270",NA
"102","R_3e4PzqzwHkIiSBm","standard","2","11","LP","0.661783713916415","44.595","45.264","45.929","1.334","0.665","3","273",NA
"103","R_3e4PzqzwHkIiSBm","standard","2","12","LP","0.264713485566566","46.932","47.212","47.593","0.661","0.381","3","276",NA
"104","R_3e4PzqzwHkIiSBm","standard","2","13","LP","2.15079707022835","48.612","50.781","50.985","2.373","0.204","3","279",NA
"105","R_3e4PzqzwHkIiSBm","standard","2","14","LP","19.8235243429556","51.997","NaN","55.017","3.02","NaN","0","279",NA
"106","R_3e4PzqzwHkIiSBm","standard","2","15","LP","1.25738905644119","56.029","57.299","57.705","1.676","0.406","3","282",NA
"107","R_3e4PzqzwHkIiSBm","standard","2","16","LP","19.8235243429556","58.715","NaN","62.233","3.518","NaN","0","282",NA
"108","R_3e4PzqzwHkIiSBm","standard","2","17","LP","5.5010771219302","63.237","NaN","66.953","3.716","NaN","0","282",NA
"109","R_3e4PzqzwHkIiSBm","standard","2","18","LP","13.0392072382594","67.97","NaN","71.065","3.095","NaN","0","282",NA
"110","R_3e4PzqzwHkIiSBm","standard","2","19","LP","0.661783713916415","72.072","72.735","73.193","1.121","0.458","3","285",NA
"111","R_3e4PzqzwHkIiSBm","standard","2","20","LP","0.264713485566566","74.202","74.474","74.936","0.734","0.462","3","288",NA
"112","R_3e4PzqzwHkIiSBm","standard","2","21","LP","13.0392072382594","75.95","NaN","77.081","1.131","NaN","0","288",NA
"113","R_3e4PzqzwHkIiSBm","standard","2","22","LP","30","78.09","NaN","79.177","1.087","NaN","0","288",NA
"114","R_3e4PzqzwHkIiSBm","standard","2","23","LP","1.25738905644119","80.189","NaN","81.401","1.212","NaN","0","288",NA
"115","R_3e4PzqzwHkIiSBm","standard","2","24","LP","13.0392072382594","82.422","NaN","83.928","1.506","NaN","0","288",NA
"116","R_3e4PzqzwHkIiSBm","standard","2","25","LP","0.264713485566566","84.937","85.207","85.672","0.735","0.465","3","291",NA
"117","R_3e4PzqzwHkIiSBm","standard","2","26","LP","2.15079707022835","86.691","NaN","87.768","1.077","NaN","0","291",NA
"118","R_3e4PzqzwHkIiSBm","standard","2","27","LP","13.0392072382594","88.776","NaN","89.897","1.121","NaN","0","291",NA
"119","R_3e4PzqzwHkIiSBm","standard","2","28","LP","0.264713485566566","90.908","91.177","91.593","0.685","0.416","3","294",NA
"120","R_3e4PzqzwHkIiSBm","standard","2","29","LP","8.51632916846187","92.609","NaN","93.688","1.079","NaN","0","294",NA
"121","R_3e4PzqzwHkIiSBm","standard","2","30","LP","30","94.694","NaN","95.752","1.058","NaN","0","294",NA
"122","R_3e4PzqzwHkIiSBm","standard","2","31","LP","3.49090909090909","96.763","NaN","97.848","1.085","NaN","0","294",NA
"123","R_3e4PzqzwHkIiSBm","standard","2","32","LP","0.264713485566566","98.864","99.131","99.544","0.68","0.413","3","297",NA
"124","R_3e4PzqzwHkIiSBm","standard","2","33","LP","2.15079707022835","100.564","NaN","101.785","1.221","NaN","0","297",NA
"125","R_3e4PzqzwHkIiSBm","standard","2","34","LP","0.661783713916415","102.796","103.465","103.833","1.037","0.368","3","300",NA
"126","R_3e4PzqzwHkIiSBm","standard","2","35","LP","0.264713485566566","104.843","105.113","105.592","0.749","0.479","3","303",NA
"127","R_3e4PzqzwHkIiSBm","standard","2","36","LP","1.25738905644119","106.613","NaN","107.576","0.963","NaN","0","303",NA
"128","R_3e4PzqzwHkIiSBm","standard","2","37","LP","30","108.597","NaN","109.88","1.283","NaN","0","303",NA
"129","R_3e4PzqzwHkIiSBm","standard","2","38","LP","1.25738905644119","110.898","NaN","112.025","1.127","NaN","0","303",NA
"130","R_3e4PzqzwHkIiSBm","standard","2","39","LP","8.51632916846187","113.031","NaN","115.336","2.305","NaN","0","303",NA
"131","R_3e4PzqzwHkIiSBm","standard","2","40","LP","30","116.346","NaN","118.392","2.046","NaN","0","303",NA
"132","R_3e4PzqzwHkIiSBm","standard","2","41","LP","0.264713485566566","119.402","119.67","120.056","0.654","0.386","3","306",NA
"133","R_3e4PzqzwHkIiSBm","standard","2","42","LP","19.8235243429556","121.071","NaN","122.313","1.242","NaN","0","306",NA
"134","R_3e4PzqzwHkIiSBm","standard","2","43","LP","8.51632916846187","123.318","NaN","124.616","1.298","NaN","0","306",NA
"135","R_3e4PzqzwHkIiSBm","standard","2","44","LP","30","125.618","NaN","126.984","1.366","NaN","0","306",NA
"136","R_3e4PzqzwHkIiSBm","standard","2","45","LP","2.15079707022835","128.002","NaN","129.24","1.238","NaN","0","306",NA
"137","R_3e4PzqzwHkIiSBm","standard","2","46","LP","2.15079707022835","130.241","NaN","131.592","1.351","NaN","0","306",NA
"138","R_3e4PzqzwHkIiSBm","standard","2","47","LP","13.0392072382594","132.605","NaN","133.993","1.388","NaN","0","306",NA
"139","R_3e4PzqzwHkIiSBm","standard","2","48","LP","2.15079707022835","135.005","NaN","136.152","1.147","NaN","0","306",NA
"140","R_3e4PzqzwHkIiSBm","standard","2","49","LP","2.15079707022835","137.174","NaN","138.777","1.603","NaN","0","306",NA
"141","R_3e4PzqzwHkIiSBm","standard","2","50","LP","19.8235243429556","139.791","NaN","141.656","1.865","NaN","0","306",NA
"142","R_3e4PzqzwHkIiSBm","standard","2","51","LP","0.661783713916415","142.676","143.361","143.784","1.108","0.423","3","309",NA
"143","R_3e4PzqzwHkIiSBm","standard","2","52","LP","30","144.792","NaN","145.961","1.169","NaN","0","309",NA
"144","R_3e4PzqzwHkIiSBm","standard","2","53","LP","5.5010771219302","146.977","NaN","147.88","0.903","NaN","0","309",NA
"145","R_3e4PzqzwHkIiSBm","standard","2","54","LP","2.15079707022835","148.893","NaN","149.736","0.843","NaN","0","309",NA
"146","R_3e4PzqzwHkIiSBm","standard","2","55","LP","8.51632916846187","150.763","NaN","151.64","0.877","NaN","0","309",NA
"147","R_3e4PzqzwHkIiSBm","standard","2","56","LP","3.49090909090909","152.663","NaN","153.512","0.849","NaN","0","309",NA
"148","R_3e4PzqzwHkIiSBm","standard","2","57","LP","0.661783713916415","154.513","155.195","155.592","1.079","0.397","3","312",NA
"149","R_3e4PzqzwHkIiSBm","standard","2","58","LP","13.0392072382594","156.612","NaN","157.529","0.917","NaN","0","312",NA
"150","R_3e4PzqzwHkIiSBm","standard","2","59","LP","19.8235243429556","158.544","NaN","159.624","1.08","NaN","0","312",NA
"151","R_3e4PzqzwHkIiSBm","standard","2","60","LP","19.8235243429556","160.633","NaN","161.608","0.975","NaN","0","312",NA
"152","R_3e4PzqzwHkIiSBm","standard","2","61","LP","3.49090909090909","162.613","NaN","163.8","1.187","NaN","0","312",NA
"153","R_3e4PzqzwHkIiSBm","standard","2","62","LP","1.25738905644119","164.814","NaN","166.072","1.258","NaN","0","312",NA
"154","R_3e4PzqzwHkIiSBm","standard","2","63","LP","13.0392072382594","167.083","NaN","168.505","1.422","NaN","0","312",NA
"155","R_3e4PzqzwHkIiSBm","standard","2","64","LP","0.264713485566566","169.517","169.784","170.168","0.651","0.384","3","315",NA
"156","R_3e4PzqzwHkIiSBm","standard","2","65","LP","1.25738905644119","171.185","NaN","172.152","0.967","NaN","0","315",NA
"157","R_3e4PzqzwHkIiSBm","standard","2","66","LP","8.51632916846187","173.169","NaN","174.248","1.079","NaN","0","315",NA
"158","R_3e4PzqzwHkIiSBm","standard","2","67","LP","19.8235243429556","175.271","NaN","176.408","1.137","NaN","0","315",NA
"159","R_3e4PzqzwHkIiSBm","standard","2","68","LP","19.8235243429556","177.422","NaN","178.712","1.29","NaN","0","315",NA
"160","R_3e4PzqzwHkIiSBm","standard","2","69","LP","19.8235243429556","179.718","NaN","181.704","1.986","NaN","0","315",NA
"161","R_3e4PzqzwHkIiSBm","standard","2","70","LP","8.51632916846187","182.705","NaN","184.312","1.607","NaN","0","315",NA
"162","R_3e4PzqzwHkIiSBm","standard","2","71","LP","13.0392072382594","185.32","NaN","186.888","1.568","NaN","0","315",NA
"163","R_3e4PzqzwHkIiSBm","standard","2","72","LP","0.661783713916415","187.905","188.59","188.952","1.047","0.362","3","318",NA
"164","R_3e4PzqzwHkIiSBm","standard","2","73","LP","2.15079707022835","189.974","NaN","191.528","1.554","NaN","0","318",NA
"165","R_3e4PzqzwHkIiSBm","standard","2","74","LP","19.8235243429556","192.538","NaN","194.136","1.598","NaN","0","318",NA
"166","R_3e4PzqzwHkIiSBm","standard","2","75","LP","2.15079707022835","195.16","NaN","196.344","1.184","NaN","0","318",NA
"167","R_3e4PzqzwHkIiSBm","standard","2","76","LP","30","197.361","NaN","198.776","1.415","NaN","0","318",NA
"168","R_3e4PzqzwHkIiSBm","standard","2","77","LP","13.0392072382594","199.793","NaN","201.432","1.639","NaN","0","318",NA
"169","R_3e4PzqzwHkIiSBm","standard","2","78","LP","1.25738905644119","202.441","203.71","203.784","1.343","0.074","3","321",NA
"170","R_3e4PzqzwHkIiSBm","standard","2","79","LP","3.49090909090909","204.794","NaN","206.136","1.342","NaN","0","321",NA
"171","R_3e4PzqzwHkIiSBm","standard","2","80","LP","8.51632916846187","207.164","NaN","208.856","1.692","NaN","0","321",NA
"172","R_3e4PzqzwHkIiSBm","standard","2","81","LP","19.8235243429556","209.865","NaN","212.6","2.735","NaN","0","321",NA
"173","R_3e4PzqzwHkIiSBm","standard","2","82","LP","30","213.612","NaN","216.6","2.988","NaN","0","321",NA
"174","R_3e4PzqzwHkIiSBm","standard","2","83","LP","5.5010771219302","217.614","NaN","218.824","1.21","NaN","0","321",NA
"175","R_3e4PzqzwHkIiSBm","standard","2","84","LP","13.0392072382594","219.835","NaN","220.904","1.069","NaN","0","321",NA
"176","R_3e4PzqzwHkIiSBm","standard","2","85","LP","5.5010771219302","221.915","NaN","222.84","0.925","NaN","0","321",NA
"177","R_3e4PzqzwHkIiSBm","standard","2","86","LP","5.5010771219302","223.846","NaN","224.712","0.866","NaN","0","321",NA
"178","R_3e4PzqzwHkIiSBm","standard","2","87","LP","13.0392072382594","225.717","NaN","227","1.283","NaN","0","321",NA
"179","R_3e4PzqzwHkIiSBm","standard","2","88","LP","2.15079707022835","228.017","NaN","229.095","1.078","NaN","0","321",NA
"180","R_3e4PzqzwHkIiSBm","standard","2","89","LP","3.49090909090909","230.103","NaN","231.448","1.345","NaN","0","321",NA
"181","R_3e4PzqzwHkIiSBm","standard","2","90","LP","0.264713485566566","232.455","232.735","233.176","0.721","0.441","3","324",NA
"182","R_3e4PzqzwHkIiSBm","standard","2","91","LP","1.25738905644119","234.186","NaN","234.84","0.654","NaN","0","324",NA
"183","R_3e4PzqzwHkIiSBm","standard","2","92","LP","0.661783713916415","235.84","236.505","236.567","0.727","0.062","3","327",NA
"184","R_3e4PzqzwHkIiSBm","standard","2","93","LP","19.8235243429556","237.589","NaN","238.311","0.722","NaN","0","327",NA
"185","R_3e4PzqzwHkIiSBm","standard","2","94","LP","8.51632916846187","239.32","NaN","240.088","0.768","NaN","0","327",NA
"186","R_3e4PzqzwHkIiSBm","standard","2","95","LP","5.5010771219302","241.105","NaN","242.071","0.966","NaN","0","327",NA
"187","R_3e4PzqzwHkIiSBm","standard","2","96","LP","2.15079707022835","243.091","NaN","244.152","1.061","NaN","0","327",NA
"188","R_3e4PzqzwHkIiSBm","standard","2","97","LP","5.5010771219302","245.159","NaN","246.263","1.104","NaN","0","327",NA
"189","R_3e4PzqzwHkIiSBm","standard","2","98","LP","5.5010771219302","247.275","NaN","248.151","0.876","NaN","0","327",NA
"190","R_3e4PzqzwHkIiSBm","standard","2","99","LP","5.5010771219302","249.16","NaN","250.231","1.071","NaN","0","327",NA
"191","R_3e4PzqzwHkIiSBm","standard","2","100","LP","0.661783713916415","251.26","251.928","252.359","1.099","0.431","3","330",NA
"192","R_3e4PzqzwHkIiSBm","standard","2","101","LP","5.5010771219302","253.377","NaN","254.408","1.031","NaN","0","330",NA
"193","R_3e4PzqzwHkIiSBm","standard","2","102","LP","1.25738905644119","255.409","NaN","256.615","1.206","NaN","0","330",NA
"194","R_3e4PzqzwHkIiSBm","standard","2","103","LP","19.8235243429556","257.624","NaN","258.887","1.263","NaN","0","330",NA
"195","R_3e4PzqzwHkIiSBm","standard","2","104","LP","0.264713485566566","259.894","260.178","260.664","0.77","0.486","3","333",NA
"196","R_3e4PzqzwHkIiSBm","standard","2","105","LP","3.49090909090909","261.679","NaN","262.647","0.968","NaN","0","333",NA
"197","R_3e4PzqzwHkIiSBm","standard","2","106","LP","5.5010771219302","263.664","NaN","264.856","1.192","NaN","0","333",NA
"198","R_3e4PzqzwHkIiSBm","standard","2","107","LP","1.25738905644119","265.865","NaN","266.999","1.134","NaN","0","333",NA
"199","R_3e4PzqzwHkIiSBm","standard","2","108","LP","1.25738905644119","268.013","NaN","269.175","1.162","NaN","0","333",NA
"200","R_3e4PzqzwHkIiSBm","standard","2","109","LP","8.51632916846187","270.197","NaN","271.479","1.282","NaN","0","333",NA
"201","R_3e4PzqzwHkIiSBm","standard","2","110","LP","2.15079707022835","272.498","NaN","273.623","1.125","NaN","0","333",NA
"202","R_3e4PzqzwHkIiSBm","standard","2","111","LP","0.661783713916415","274.63","275.299","275.704","1.074","0.405","3","336",NA
"203","R_3e4PzqzwHkIiSBm","standard","2","112","LP","5.5010771219302","276.715","NaN","277.895","1.18","NaN","0","336",NA
"204","R_3e4PzqzwHkIiSBm","standard","2","113","LP","19.8235243429556","278.916","NaN","280.055","1.139","NaN","0","336",NA
"205","R_3e4PzqzwHkIiSBm","standard","2","114","LP","3.49090909090909","281.07","NaN","282.391","1.321","NaN","0","336",NA
"206","R_3e4PzqzwHkIiSBm","standard","2","115","LP","5.5010771219302","283.401","NaN","284.583","1.182","NaN","0","336",NA
"207","R_3e4PzqzwHkIiSBm","standard","2","116","LP","0.661783713916415","285.603","286.272","286.664","1.061","0.392","3","339",NA
"208","R_3e4PzqzwHkIiSBm","standard","2","117","LP","5.5010771219302","287.672","NaN","288.935","1.263","NaN","0","339",NA
"209","R_3e4PzqzwHkIiSBm","standard","2","118","LP","8.51632916846187","289.948","NaN","291.383","1.435","NaN","0","339",NA
"210","R_3e4PzqzwHkIiSBm","standard","2","119","LP","5.5010771219302","292.403","NaN","293.703","1.3","NaN","0","339",NA
"211","R_3e4PzqzwHkIiSBm","standard","2","120","LP","5.5010771219302","294.705","NaN","295.767","1.062","NaN","0","339",NA
"212","R_3e4PzqzwHkIiSBm","standard","2","121","LP","3.49090909090909","296.789","NaN","298.072","1.283","NaN","0","339",NA
"213","R_3e4PzqzwHkIiSBm","standard","2","122","LP","1.25738905644119","299.091","NaN","300.215","1.124","NaN","0","339",NA
"214","R_3e4PzqzwHkIiSBm","standard","2","123","LP","5.5010771219302","301.227","NaN","302.519","1.292","NaN","0","339",NA
"215","R_3e4PzqzwHkIiSBm","standard","2","124","LP","8.51632916846187","303.529","NaN","304.615","1.086","NaN","0","339",NA
"216","R_3e4PzqzwHkIiSBm","standard","2","125","LP","19.8235243429556","305.623","NaN","306.887","1.264","NaN","0","339",NA
"217","R_3e4PzqzwHkIiSBm","standard","2","126","LP","8.51632916846187","307.908","NaN","309.208","1.3","NaN","0","339",NA
"218","R_3e4PzqzwHkIiSBm","standard","2","127","LP","8.51632916846187","310.209","NaN","311.255","1.046","NaN","0","339",NA
"219","R_3e4PzqzwHkIiSBm","standard","2","128","LP","0.264713485566566","312.263","312.531","313.063","0.8","0.532","3","342",NA
"220","R_3e4PzqzwHkIiSBm","standard","2","129","LP","1.25738905644119","314.079","NaN","314.951","0.872","NaN","0","342",NA
"221","R_3e4PzqzwHkIiSBm","standard","2","130","LP","1.25738905644119","315.96","NaN","316.855","0.895","NaN","0","342",NA
"222","R_3e4PzqzwHkIiSBm","standard","2","131","LP","3.49090909090909","317.864","NaN","318.839","0.975","NaN","0","342",NA
"223","R_3e4PzqzwHkIiSBm","standard","2","132","LP","30","319.865","NaN","320.999","1.134","NaN","0","342",NA
"224","R_3e4PzqzwHkIiSBm","standard","2","133","LP","0.264713485566566","322.013","322.281","322.711","0.698","0.43","3","345",NA
"225","R_3e4PzqzwHkIiSBm","standard","2","134","LP","0.661783713916415","323.713","324.382","324.759","1.046","0.377","3","348",NA
"226","R_3e4PzqzwHkIiSBm","standard","2","135","LP","2.15079707022835","325.766","NaN","326.855","1.089","NaN","0","348",NA
"227","R_3e4PzqzwHkIiSBm","standard","2","136","LP","3.49090909090909","327.867","NaN","329.063","1.196","NaN","0","348",NA
"228","R_3e4PzqzwHkIiSBm","standard","2","137","LP","8.51632916846187","330.084","NaN","331.319","1.235","NaN","0","348",NA
"229","R_3e4PzqzwHkIiSBm","standard","2","138","LP","5.5010771219302","332.331","NaN","333.367","1.036","NaN","0","348",NA
"230","R_3e4PzqzwHkIiSBm","standard","2","139","LP","19.8235243429556","334.384","NaN","335.623","1.239","NaN","0","348",NA
"231","R_3e4PzqzwHkIiSBm","standard","2","140","LP","0.264713485566566","336.633","336.902","337.319","0.686","0.417","3","351",NA
"232","R_3e4PzqzwHkIiSBm","standard","2","141","LP","8.51632916846187","338.332","NaN","339.575","1.243","NaN","0","351",NA
"233","R_3e4PzqzwHkIiSBm","standard","2","142","LP","2.15079707022835","340.586","NaN","341.799","1.213","NaN","0","351",NA
"234","R_3e4PzqzwHkIiSBm","standard","2","143","LP","30","342.822","NaN","343.895","1.073","NaN","0","351",NA
"235","R_3e4PzqzwHkIiSBm","standard","2","144","LP","13.0392072382594","344.904","NaN","346.055","1.151","NaN","0","351",NA
"236","R_3e4PzqzwHkIiSBm","standard","2","145","LP","30","347.058","NaN","348.039","0.981","NaN","0","351",NA
"237","R_3e4PzqzwHkIiSBm","standard","2","146","LP","2.15079707022835","349.041","NaN","350.119","1.078","NaN","0","351",NA
"238","R_3e4PzqzwHkIiSBm","standard","2","147","LP","30","351.136","NaN","352.167","1.031","NaN","0","351",NA
"239","R_3e4PzqzwHkIiSBm","standard","2","148","LP","19.8235243429556","353.174","NaN","354.503","1.329","NaN","0","351",NA
"240","R_3e4PzqzwHkIiSBm","standard","2","149","LP","3.49090909090909","355.506","NaN","356.615","1.109","NaN","0","351",NA
"241","R_3e4PzqzwHkIiSBm","standard","2","150","LP","3.49090909090909","357.622","NaN","358.631","1.009","NaN","0","351",NA
"242","R_3e4PzqzwHkIiSBm","standard","2","151","LP","13.0392072382594","359.638","NaN","360.695","1.057","NaN","0","351",NA
"243","R_3e4PzqzwHkIiSBm","standard","2","152","LP","0.661783713916415","361.708","362.378","362.711","1.003","0.333","3","354",NA
"244","R_3e4PzqzwHkIiSBm","standard","2","153","LP","2.15079707022835","363.724","NaN","364.791","1.067","NaN","0","354",NA
"245","R_3e4PzqzwHkIiSBm","standard","2","154","LP","19.8235243429556","365.809","NaN","366.903","1.094","NaN","0","354",NA
"246","R_3e4PzqzwHkIiSBm","standard","2","155","LP","3.49090909090909","367.909","NaN","368.998","1.089","NaN","0","354",NA
"247","R_3e4PzqzwHkIiSBm","standard","2","156","LP","1.25738905644119","370.003","NaN","370.983","0.98","NaN","0","354",NA
"248","R_3e4PzqzwHkIiSBm","standard","2","157","LP","0.661783713916415","371.995","372.664","372.935","0.94","0.271","3","357",NA
"249","R_3e4PzqzwHkIiSBm","standard","2","158","LP","19.8235243429556","373.942","NaN","374.918","0.976","NaN","0","357",NA
"250","R_3e4PzqzwHkIiSBm","standard","2","159","LP","5.5010771219302","375.929","NaN","376.982","1.053","NaN","0","357",NA
"251","R_3e4PzqzwHkIiSBm","standard","2","160","LP","8.51632916846187","377.998","NaN","379.046","1.048","NaN","0","357",NA
"252","R_3e4PzqzwHkIiSBm","standard","2","161","LP","8.51632916846187","380.066","NaN","380.998","0.932","NaN","0","357",NA
"253","R_3e4PzqzwHkIiSBm","standard","2","162","LP","19.8235243429556","382.014","NaN","383.175","1.161","NaN","0","357",NA
"254","R_3e4PzqzwHkIiSBm","standard","2","163","LP","5.5010771219302","384.185","NaN","385.254","1.069","NaN","0","357",NA
"255","R_3e4PzqzwHkIiSBm","standard","2","164","LP","8.51632916846187","386.268","NaN","387.318","1.05","NaN","0","357",NA
"256","R_3e4PzqzwHkIiSBm","standard","2","165","LP","0.661783713916415","388.331","389.001","389.286","0.955","0.285","3","360",NA
"257","R_3e4PzqzwHkIiSBm","standard","2","166","LP","13.0392072382594","390.301","NaN","391.382","1.081","NaN","0","360",NA
"258","R_3e4PzqzwHkIiSBm","standard","2","167","LP","8.51632916846187","392.402","NaN","393.447","1.045","NaN","0","360",NA
"259","R_3e4PzqzwHkIiSBm","standard","2","168","LP","8.51632916846187","394.454","NaN","395.446","0.992","NaN","0","360",NA
"260","R_3e4PzqzwHkIiSBm","standard","2","169","LP","5.5010771219302","396.455","NaN","397.478","1.023","NaN","0","360",NA
"261","R_3e4PzqzwHkIiSBm","standard","2","170","LP","3.49090909090909","398.488","NaN","399.574","1.086","NaN","0","360",NA
"262","R_3e4PzqzwHkIiSBm","standard","2","171","LP","3.49090909090909","400.587","NaN","401.382","0.795","NaN","0","360",NA
"263","R_3e4PzqzwHkIiSBm","standard","2","172","LP","30","402.404","NaN","403.366","0.962","NaN","0","360",NA
"264","R_3e4PzqzwHkIiSBm","standard","2","173","LP","19.8235243429556","404.388","NaN","405.495","1.107","NaN","0","360",NA
"265","R_3e4PzqzwHkIiSBm","standard","2","174","LP","2.15079707022835","406.506","NaN","407.67","1.164","NaN","0","360",NA
"266","R_3e4PzqzwHkIiSBm","standard","2","175","LP","0.264713485566566","408.691","408.956","409.334","0.643","0.378","3","363",NA
"267","R_3e4PzqzwHkIiSBm","standard","2","176","LP","2.15079707022835","410.359","NaN","411.414","1.055","NaN","0","363",NA
"268","R_3e4PzqzwHkIiSBm","standard","2","177","LP","0.661783713916415","412.422","413.092","413.462","1.04","0.37","3","366",NA
"269","R_3e4PzqzwHkIiSBm","standard","2","178","LP","2.15079707022835","414.477","NaN","415.511","1.034","NaN","0","366",NA
"270","R_3e4PzqzwHkIiSBm","standard","2","179","LP","3.49090909090909","416.523","NaN","417.462","0.939","NaN","0","366",NA
"271","R_3e4PzqzwHkIiSBm","standard","2","180","LP","30","418.477","NaN","419.414","0.937","NaN","0","366",NA
"272","R_3e4PzqzwHkIiSBm","standard","2","181","LP","13.0392072382594","420.424","NaN","421.43","1.006","NaN","0","366",NA
"273","R_3e4PzqzwHkIiSBm","standard","2","182","LP","13.0392072382594","422.441","NaN","423.414","0.973","NaN","0","366",NA
"274","R_3e4PzqzwHkIiSBm","standard","2","183","LP","19.8235243429556","424.426","NaN","425.559","1.133","NaN","0","366",NA
"275","R_3e4PzqzwHkIiSBm","standard","2","184","LP","19.8235243429556","426.58","NaN","427.638","1.058","NaN","0","366",NA
"276","R_3e4PzqzwHkIiSBm","standard","2","185","LP","8.51632916846187","428.665","NaN","429.83","1.165","NaN","0","366",NA
"277","R_3e4PzqzwHkIiSBm","standard","2","186","LP","3.49090909090909","430.833","NaN","431.862","1.029","NaN","0","366",NA
"278","R_3e4PzqzwHkIiSBm","standard","2","187","LP","5.5010771219302","432.882","NaN","434.012","1.13","NaN","0","366",NA
"279","R_3e4PzqzwHkIiSBm","standard","2","188","LP","13.0392072382594","435.025","NaN","436.14","1.115","NaN","0","366",NA
"280","R_3e4PzqzwHkIiSBm","standard","2","189","LP","8.51632916846187","437.141","NaN","438.204","1.063","NaN","0","366",NA
"281","R_3e4PzqzwHkIiSBm","standard","2","190","LP","13.0392072382594","439.205","NaN","440.236","1.031","NaN","0","366",NA
"282","R_3e4PzqzwHkIiSBm","standard","2","191","LP","3.49090909090909","441.258","NaN","442.283","1.025","NaN","0","366",NA
"283","R_3e4PzqzwHkIiSBm","standard","2","192","LP","13.0392072382594","443.306","NaN","444.236","0.93","NaN","0","366",NA
"284","R_3e4PzqzwHkIiSBm","standard","2","193","LP","3.49090909090909","445.259","NaN","446.268","1.009","NaN","0","366",NA
"285","R_3e4PzqzwHkIiSBm","standard","2","194","LP","5.5010771219302","447.291","NaN","448.556","1.265","NaN","0","366",NA
"286","R_3e4PzqzwHkIiSBm","standard","2","195","LP","13.0392072382594","449.577","NaN","450.652","1.075","NaN","0","366",NA
"287","R_3e4PzqzwHkIiSBm","standard","2","196","LP","8.51632916846187","451.661","NaN","452.748","1.087","NaN","0","366",NA
"288","R_3e4PzqzwHkIiSBm","standard","2","197","LP","3.49090909090909","453.762","NaN","454.875","1.113","NaN","0","366",NA
"289","R_3e4PzqzwHkIiSBm","standard","2","198","LP","8.51632916846187","455.894","NaN","457.116","1.222","NaN","0","366",NA
"290","R_3e4PzqzwHkIiSBm","standard","2","199","LP","3.49090909090909","458.126","NaN","459.388","1.262","NaN","0","366",NA
"291","R_3e4PzqzwHkIiSBm","standard","2","200","LP","19.8235243429556","460.41","NaN","461.964","1.554","NaN","0","366",NA
"292","R_3e4PzqzwHkIiSBm","standard","2","201","LP","1.25738905644119","462.979","NaN","463.963","0.984","NaN","0","366",NA
"293","R_3e4PzqzwHkIiSBm","standard","2","202","LP","13.0392072382594","464.98","NaN","465.787","0.807","NaN","0","366",NA
"294","R_3e4PzqzwHkIiSBm","standard","2","203","LP","0.661783713916415","466.796","467.465","467.852","1.056","0.387","3","369",NA
"295","R_3e4PzqzwHkIiSBm","standard","2","204","LP","0.264713485566566","468.866","469.15","469.531","0.665","0.381","3","372",NA
"296","R_3e4PzqzwHkIiSBm","standard","2","205","LP","2.15079707022835","470.535","NaN","471.083","0.548","NaN","0","372",NA
"297","R_3e4PzqzwHkIiSBm","standard","2","206","LP","3.49090909090909","472.098","NaN","472.891","0.793","NaN","0","372",NA
"298","R_3e4PzqzwHkIiSBm","standard","2","207","LP","30","473.899","NaN","474.651","0.752","NaN","0","372",NA
"299","R_3e4PzqzwHkIiSBm","standard","2","208","LP","0.661783713916415","475.668","NaN","476.267","0.599","NaN","0","372",NA
"300","R_3e4PzqzwHkIiSBm","standard","2","209","LP","19.8235243429556","477.284","NaN","478.076","0.792","NaN","0","372",NA
"301","R_3e4PzqzwHkIiSBm","standard","2","210","LP","3.49090909090909","479.084","NaN","479.835","0.751","NaN","0","372",NA
"302","R_3e4PzqzwHkIiSBm","standard","2","211","LP","13.0392072382594","480.853","NaN","481.611","0.758","NaN","0","372",NA
"303","R_3e4PzqzwHkIiSBm","standard","2","212","LP","0.264713485566566","482.622","482.902","483.339","0.717","0.437","3","375",NA
"304","R_3e4PzqzwHkIiSBm","standard","2","213","LP","1.25738905644119","484.355","NaN","485.195","0.84","NaN","0","375",NA
"305","R_3e4PzqzwHkIiSBm","standard","2","214","LP","0.264713485566566","486.203","486.488","486.939","0.736","0.451","3","378",NA
"306","R_3e4PzqzwHkIiSBm","standard","2","215","LP","1.25738905644119","487.956","NaN","488.748","0.792","NaN","0","378",NA
"307","R_3e4PzqzwHkIiSBm","standard","2","216","LP","2.15079707022835","489.757","NaN","490.555","0.798","NaN","0","378",NA
"308","R_3e4PzqzwHkIiSBm","standard","2","217","LP","1.25738905644119","491.573","NaN","492.379","0.806","NaN","0","378",NA
"309","R_3e4PzqzwHkIiSBm","standard","2","218","LP","3.49090909090909","493.389","NaN","494.214","0.825","NaN","0","378",NA
"310","R_3e4PzqzwHkIiSBm","standard","2","219","LP","3.49090909090909","495.216","NaN","496.038","0.822","NaN","0","378",NA
"311","R_3e4PzqzwHkIiSBm","standard","2","220","LP","0.661783713916415","497.046","497.716","497.878","0.832","0.162","3","381",NA
"312","R_3e4PzqzwHkIiSBm","standard","2","221","LP","0.661783713916415","498.887","499.57","499.814","0.927","0.244","3","384",NA
"313","R_3e4PzqzwHkIiSBm","standard","2","222","LP","30","500.819","NaN","501.702","0.883","NaN","0","384",NA
"314","R_3e4PzqzwHkIiSBm","standard","2","223","LP","5.5010771219302","502.703","NaN","503.542","0.839","NaN","0","384",NA
"315","R_3e4PzqzwHkIiSBm","standard","2","224","LP","8.51632916846187","504.55","NaN","505.494","0.944","NaN","0","384",NA
"316","R_3e4PzqzwHkIiSBm","standard","2","225","LP","1.25738905644119","506.505","NaN","507.286","0.781","NaN","0","384",NA
"317","R_3e4PzqzwHkIiSBm","standard","2","226","LP","0.661783713916415","508.304","508.972","509.238","0.934","0.266","3","387",NA
"318","R_3e4PzqzwHkIiSBm","standard","2","227","LP","5.5010771219302","510.242","NaN","511.174","0.932","NaN","0","387",NA
"319","R_3e4PzqzwHkIiSBm","standard","2","228","LP","30","512.188","NaN","513.222","1.034","NaN","0","387",NA
"320","R_3e4PzqzwHkIiSBm","standard","2","229","LP","30","514.222","NaN","514.982","0.76","NaN","0","387",NA
"321","R_3e4PzqzwHkIiSBm","standard","2","230","LP","0.264713485566566","515.99","516.274","516.678","0.688","0.404","3","390",NA
"322","R_3e4PzqzwHkIiSBm","standard","2","231","LP","2.15079707022835","517.69","NaN","518.518","0.828","NaN","0","390",NA
"323","R_3e4PzqzwHkIiSBm","standard","2","232","LP","3.49090909090909","519.538","NaN","520.262","0.724","NaN","0","390",NA
"324","R_3e4PzqzwHkIiSBm","standard","2","233","LP","8.51632916846187","521.275","NaN","522.022","0.747","NaN","0","390",NA
"325","R_3e4PzqzwHkIiSBm","standard","2","234","LP","2.15079707022835","523.029","NaN","523.813","0.784","NaN","0","390",NA
"326","R_3e4PzqzwHkIiSBm","standard","2","235","LP","5.5010771219302","524.824","NaN","525.622","0.798","NaN","0","390",NA
"327","R_3e4PzqzwHkIiSBm","standard","2","236","LP","5.5010771219302","526.63","NaN","527.414","0.784","NaN","0","390",NA
"328","R_3e4PzqzwHkIiSBm","standard","2","237","LP","0.264713485566566","528.424","528.709","529.19","0.766","0.481","3","393",NA
"329","R_3e4PzqzwHkIiSBm","standard","2","238","LP","2.15079707022835","530.209","NaN","530.982","0.773","NaN","0","393",NA
"330","R_3e4PzqzwHkIiSBm","standard","2","239","LP","19.8235243429556","531.995","NaN","532.678","0.683","NaN","0","393",NA
"331","R_3e4PzqzwHkIiSBm","standard","2","240","LP","30","533.695","NaN","534.47","0.775","NaN","0","393",NA
"332","R_3e4PzqzwHkIiSBm","standard","2","241","LP","30","535.48","NaN","536.31","0.83","NaN","0","393",NA
"333","R_3e4PzqzwHkIiSBm","standard","2","242","LP","5.5010771219302","537.312","NaN","538.165","0.853","NaN","0","393",NA
"334","R_3e4PzqzwHkIiSBm","standard","2","243","LP","1.25738905644119","539.181","NaN","539.926","0.745","NaN","0","393",NA
"335","R_3e4PzqzwHkIiSBm","standard","2","244","LP","0.661783713916415","540.934","541.598","541.734","0.8","0.136","3","396",NA
"336","R_3e4PzqzwHkIiSBm","standard","2","245","LP","3.49090909090909","542.734","NaN","543.51","0.776","NaN","0","396",NA
"337","R_3e4PzqzwHkIiSBm","standard","2","246","LP","1.25738905644119","544.514","NaN","545.253","0.739","NaN","0","396",NA
"338","R_3e4PzqzwHkIiSBm","standard","2","247","LP","5.5010771219302","546.267","NaN","546.982","0.715","NaN","0","396",NA
"339","R_3e4PzqzwHkIiSBm","standard","2","248","LP","0.264713485566566","547.999","548.284","548.71","0.711","0.426","3","399",NA
"340","R_3e4PzqzwHkIiSBm","standard","2","249","LP","30","549.716","NaN","550.47","0.754","NaN","0","399",NA
"341","R_3e4PzqzwHkIiSBm","standard","2","250","LP","5.5010771219302","551.486","NaN","552.245","0.759","NaN","0","399",NA
"342","R_3e4PzqzwHkIiSBm","standard","2","251","LP","0.264713485566566","553.248","553.533","553.926","0.678","0.393","3","402",NA
"343","R_3e4PzqzwHkIiSBm","standard","2","252","LP","2.15079707022835","554.938","NaN","555.797","0.859","NaN","0","402",NA
"344","R_3e4PzqzwHkIiSBm","standard","2","253","LP","1.25738905644119","556.802","NaN","557.461","0.659","NaN","0","402",NA
"345","R_3e4PzqzwHkIiSBm","standard","2","254","LP","13.0392072382594","558.472","NaN","559.061","0.589","NaN","0","402",NA
"346","R_3e4PzqzwHkIiSBm","standard","2","255","LP","0.264713485566566","560.072","560.34","560.789","0.717","0.449","3","405",NA
"347","R_3e4PzqzwHkIiSBm","standard","2","256","LP","0.661783713916415","561.802","562.474","562.597","0.795","0.123","3","408",NA
"348","R_3e4PzqzwHkIiSBm","standard","2","257","LP","19.8235243429556","563.603","NaN","564.422","0.819","NaN","0","408",NA
"349","R_3e4PzqzwHkIiSBm","standard","2","258","LP","30","565.434","NaN","566.245","0.811","NaN","0","408",NA
"350","R_3e4PzqzwHkIiSBm","standard","2","259","LP","13.0392072382594","567.25","NaN","568.053","0.803","NaN","0","408",NA
"351","R_3e4PzqzwHkIiSBm","standard","2","260","LP","2.15079707022835","569.075","NaN","569.701","0.626","NaN","0","408",NA
"352","R_3e4PzqzwHkIiSBm","standard","2","261","LP","5.5010771219302","570.705","NaN","571.413","0.708","NaN","0","408",NA
"353","R_3e4PzqzwHkIiSBm","standard","2","262","LP","8.51632916846187","572.422","NaN","573.093","0.671","NaN","0","408",NA
"354","R_3e4PzqzwHkIiSBm","standard","2","263","LP","2.15079707022835","574.106","NaN","574.806","0.7","NaN","0","408",NA
"355","R_3e4PzqzwHkIiSBm","standard","2","264","LP","3.49090909090909","575.807","NaN","576.661","0.854","NaN","0","408",NA
"356","R_3e4PzqzwHkIiSBm","standard","2","265","LP","30","577.676","NaN","578.373","0.697","NaN","0","408",NA
"357","R_3e4PzqzwHkIiSBm","standard","2","266","LP","0.661783713916415","579.377","580.061","580.117","0.74","0.056","3","411",NA
"358","R_3e4PzqzwHkIiSBm","standard","2","267","LP","0.264713485566566","581.125","581.394","581.829","0.704","0.435","3","414",NA
"359","R_3e4PzqzwHkIiSBm","standard","2","268","LP","30","582.83","NaN","583.301","0.471","NaN","0","414",NA
"360","R_3e4PzqzwHkIiSBm","standard","2","269","LP","19.8235243429556","584.31","NaN","585.014","0.704","NaN","0","414",NA
"361","R_3e4PzqzwHkIiSBm","standard","2","270","LP","30","586.028","NaN","586.741","0.713","NaN","0","414",NA
"362","R_3e4PzqzwHkIiSBm","standard","2","271","LP","19.8235243429556","587.763","NaN","588.517","0.754","NaN","0","414",NA
"363","R_3e4PzqzwHkIiSBm","standard","2","272","LP","3.49090909090909","589.526","NaN","590.229","0.703","NaN","0","414",NA
"364","R_3e4PzqzwHkIiSBm","standard","2","273","LP","13.0392072382594","591.23","NaN","591.989","0.759","NaN","0","414",NA
"365","R_3e4PzqzwHkIiSBm","standard","2","274","LP","5.5010771219302","592.996","NaN","593.573","0.577","NaN","0","414",NA
"366","R_3e4PzqzwHkIiSBm","standard","2","275","LP","2.15079707022835","594.582","NaN","595.254","0.672","NaN","0","414",NA
"367","R_3e4PzqzwHkIiSBm","standard","2","276","LP","30","596.267","NaN","597.061","0.794","NaN","0","414",NA
"368","R_3e4PzqzwHkIiSBm","standard","2","277","LP","2.15079707022835","598.067","NaN","598.613","0.546","NaN","0","414",NA
