"","subject_id","condition","n_block","n_trialIdx","f_timing_condition","n_scheduled_delay","n_trial_start_time","n_rewarded_time_fin","n_sell_time_fin","n_time_waited_fin","RT_fin","n_trial_earnings_fin","n_total_earnings_fin","keypress_times"
"1","R_3fkhimIQX2X0U1n","standard","1","1","HP","8","0.001","8.009","8.295","8.294","0.286","3","3",""
"2","R_3fkhimIQX2X0U1n","standard","1","2","HP","2","9.298","11.306","11.665","2.367","0.359","3","6",""
"3","R_3fkhimIQX2X0U1n","standard","1","3","HP","8","12.679","20.686","21.045","8.366","0.359","3","9",""
"4","R_3fkhimIQX2X0U1n","standard","1","4","HP","2","22.054","24.07","24.448","2.394","0.378","3","12",""
"5","R_3fkhimIQX2X0U1n","standard","1","5","HP","12","25.455","37.464","37.771","12.316","0.307","3","15",""
"6","R_3fkhimIQX2X0U1n","standard","1","6","HP","18","38.781","56.781","57.192","18.411","0.411","3","18",""
"7","R_3fkhimIQX2X0U1n","standard","1","7","HP","18","58.194","76.199","76.573","18.379","0.374","3","21",""
"8","R_3fkhimIQX2X0U1n","standard","1","8","HP","10","77.588","87.601","87.93","10.342","0.329","3","24",""
"9","R_3fkhimIQX2X0U1n","standard","1","9","HP","8","88.944","96.948","97.41","8.466","0.462","3","27",""
"10","R_3fkhimIQX2X0U1n","standard","1","10","HP","2","98.421","100.432","100.87","2.449","0.438","3","30",""
"11","R_3fkhimIQX2X0U1n","standard","1","11","HP","18","101.884","119.897","120.267","18.383","0.37","3","33",""
"12","R_3fkhimIQX2X0U1n","standard","1","12","HP","4","121.271","125.273","125.617","4.346","0.344","3","36",""
"13","R_3fkhimIQX2X0U1n","standard","1","13","HP","20","126.628","146.639","147.047","20.419","0.408","3","39",""
"14","R_3fkhimIQX2X0U1n","standard","1","14","HP","10","148.058","158.07","158.456","10.398","0.386","3","42",""
"15","R_3fkhimIQX2X0U1n","standard","1","15","HP","16","159.458","175.464","175.759","16.301","0.295","3","45",""
"16","R_3fkhimIQX2X0U1n","standard","1","16","HP","14","176.772","190.786","191.14","14.368","0.354","3","48",""
"17","R_3fkhimIQX2X0U1n","standard","1","17","HP","20","192.145","212.16","212.59","20.445","0.43","3","51",""
"18","R_3fkhimIQX2X0U1n","standard","1","18","HP","8","213.605","221.606","221.944","8.339","0.338","3","54",""
"19","R_3fkhimIQX2X0U1n","standard","1","19","HP","2","222.956","224.963","225.352","2.396","0.389","3","57",""
"20","R_3fkhimIQX2X0U1n","standard","1","20","HP","16","226.362","242.372","242.658","16.296","0.286","3","60",""
"21","R_3fkhimIQX2X0U1n","standard","1","21","HP","8","243.666","251.672","252.028","8.362","0.356","3","63",""
"22","R_3fkhimIQX2X0U1n","standard","1","22","HP","6","253.039","259.047","259.368","6.329","0.321","3","66",""
"23","R_3fkhimIQX2X0U1n","standard","1","23","HP","10","260.375","270.381","270.74","10.365","0.359","3","69",""
"24","R_3fkhimIQX2X0U1n","standard","1","24","HP","2","271.755","273.759","274.239","2.484","0.48","3","72",""
"25","R_3fkhimIQX2X0U1n","standard","1","25","HP","14","275.24","289.255","289.583","14.343","0.328","3","75",""
"26","R_3fkhimIQX2X0U1n","standard","1","26","HP","20","290.595","310.597","310.896","20.301","0.299","3","78",""
"27","R_3fkhimIQX2X0U1n","standard","1","27","HP","4","311.902","315.91","316.338","4.436","0.428","3","81",""
"28","R_3fkhimIQX2X0U1n","standard","1","28","HP","16","317.347","333.359","333.676","16.329","0.317","3","84",""
"29","R_3fkhimIQX2X0U1n","standard","1","29","HP","18","334.684","352.685","353.048","18.364","0.363","3","87",""
"30","R_3fkhimIQX2X0U1n","standard","1","30","HP","20","354.056","374.072","374.413","20.357","0.341","3","90",""
"31","R_3fkhimIQX2X0U1n","standard","1","31","HP","18","375.428","393.431","393.805","18.377","0.374","3","93",""
"32","R_3fkhimIQX2X0U1n","standard","1","32","HP","4","394.808","398.822","399.239","4.431","0.417","3","96",""
"33","R_3fkhimIQX2X0U1n","standard","1","33","HP","12","400.243","412.244","412.637","12.394","0.393","3","99",""
"34","R_3fkhimIQX2X0U1n","standard","1","34","HP","6","413.652","419.665","420.066","6.414","0.401","3","102",""
"35","R_3fkhimIQX2X0U1n","standard","1","35","HP","14","421.077","435.079","435.383","14.306","0.304","3","105",""
"36","R_3fkhimIQX2X0U1n","standard","1","36","HP","8","436.39","444.405","444.757","8.367","0.352","3","108",""
"37","R_3fkhimIQX2X0U1n","standard","1","37","HP","20","445.76","465.774","466.233","20.473","0.459","3","111",""
"38","R_3fkhimIQX2X0U1n","standard","1","38","HP","12","467.241","479.255","479.648","12.407","0.393","3","114",""
"39","R_3fkhimIQX2X0U1n","standard","1","39","HP","14","480.656","494.667","495.025","14.369","0.358","3","117",""
"40","R_3fkhimIQX2X0U1n","standard","1","40","HP","2","496.031","498.032","498.505","2.474","0.473","3","120",""
"41","R_3fkhimIQX2X0U1n","standard","1","41","HP","18","499.516","517.529","517.867","18.351","0.338","3","123",""
"42","R_3fkhimIQX2X0U1n","standard","1","42","HP","6","518.874","524.887","525.322","6.448","0.435","3","126",""
"43","R_3fkhimIQX2X0U1n","standard","1","43","HP","16","526.327","542.329","542.686","16.359","0.357","3","129",""
"44","R_3fkhimIQX2X0U1n","standard","1","44","HP","18","543.697","561.705","562.07","18.373","0.365","3","132",""
"45","R_3fkhimIQX2X0U1n","standard","1","45","HP","8","563.074","571.088","571.496","8.422","0.408","3","135",""
"46","R_3fkhimIQX2X0U1n","standard","1","46","HP","8","572.506","580.51","580.902","8.396","0.392","3","138",""
"47","R_3fkhimIQX2X0U1n","standard","1","47","HP","4","581.909","585.92","586.325","4.416","0.405","3","141",""
"48","R_3fkhimIQX2X0U1n","standard","1","48","HP","6","587.328","593.333","593.719","6.391","0.386","3","144",""
"49","R_3fkhimIQX2X0U1n","standard","1","49","HP","16","594.73","610.744","611.088","16.358","0.344","3","147",""
"50","R_3fkhimIQX2X0U1n","standard","1","50","HP","4","612.101","616.108","616.49","4.389","0.382","3","150",""
"51","R_3fkhimIQX2X0U1n","standard","1","51","HP","6","617.498","623.509","624.073","6.575","0.564","3","153",""
"52","R_3fkhimIQX2X0U1n","standard","1","52","HP","14","625.078","639.082","639.417","14.339","0.335","3","156",""
"53","R_3fkhimIQX2X0U1n","standard","1","53","HP","10","640.424","650.427","650.787","10.363","0.36","3","159",""
"54","R_3fkhimIQX2X0U1n","standard","1","54","HP","10","651.798","661.807","662.154","10.356","0.347","3","162",""
"55","R_3fkhimIQX2X0U1n","standard","1","55","HP","16","663.166","679.17","679.524","16.358","0.354","3","165",""
"56","R_3fkhimIQX2X0U1n","standard","1","56","HP","16","680.525","696.533","696.867","16.342","0.334","3","168",""
"57","R_3fkhimIQX2X0U1n","standard","1","57","HP","18","697.876","715.888","716.263","18.387","0.375","3","171",""
"58","R_3fkhimIQX2X0U1n","standard","1","58","HP","14","717.278","731.281","731.636","14.358","0.355","3","174",""
"59","R_3fkhimIQX2X0U1n","standard","1","59","HP","2","732.652","734.654","735.167","2.515","0.513","3","177",""
"60","R_3fkhimIQX2X0U1n","standard","1","60","HP","16","736.18","752.189","752.488","16.308","0.299","3","180",""
"61","R_3fkhimIQX2X0U1n","standard","1","61","HP","18","753.498","771.511","771.865","18.367","0.354","3","183",""
"62","R_3fkhimIQX2X0U1n","standard","1","62","HP","16","772.87","788.871","789.193","16.323","0.322","3","186",""
"63","R_3fkhimIQX2X0U1n","standard","1","63","HP","4","790.2","794.201","794.593","4.393","0.392","3","189",""
"64","R_3fkhimIQX2X0U1n","standard","1","64","HP","6","795.607","801.621","801.937","6.33","0.316","3","192",""
"65","R_3fkhimIQX2X0U1n","standard","1","65","HP","12","802.946","814.958","815.276","12.33","0.318","3","195",""
"66","R_3fkhimIQX2X0U1n","standard","1","66","HP","4","816.286","820.294","820.62","4.334","0.326","3","198",""
"67","R_3fkhimIQX2X0U1n","standard","1","67","HP","18","821.629","839.637","840.012","18.383","0.375","3","201",""
"68","R_3fkhimIQX2X0U1n","standard","1","68","HP","20","841.023","861.024","861.419","20.396","0.395","3","204",""
"69","R_3fkhimIQX2X0U1n","standard","1","69","HP","20","862.426","882.431","882.752","20.326","0.321","3","207",""
"70","R_3fkhimIQX2X0U1n","standard","1","70","HP","14","883.755","897.77","898.107","14.352","0.337","3","210",""
"71","R_3fkhimIQX2X0U1n","standard","2","1","LP","8.51632916846187","0","8.523","8.911","8.911","0.388","3","213",NA
"72","R_3fkhimIQX2X0U1n","standard","2","2","LP","19.8235243429556","9.911","NaN","25.448","15.537","NaN","0","213",NA
"73","R_3fkhimIQX2X0U1n","standard","2","3","LP","0.661783713916415","26.459","27.132","27.64","1.181","0.508","3","216",NA
"74","R_3fkhimIQX2X0U1n","standard","2","4","LP","19.8235243429556","28.643","NaN","45.466","16.823","NaN","0","216",NA
"75","R_3fkhimIQX2X0U1n","standard","2","5","LP","0.264713485566566","46.478","46.743","47.229","0.751","0.486","3","219",NA
"76","R_3fkhimIQX2X0U1n","standard","2","6","LP","13.0392072382594","48.239","NaN","60.735","12.496","NaN","0","219",NA
"77","R_3fkhimIQX2X0U1n","standard","2","7","LP","2.15079707022835","61.746","63.9","64.233","2.487","0.333","3","222",NA
"78","R_3fkhimIQX2X0U1n","standard","2","8","LP","5.5010771219302","65.242","70.752","71.124","5.882","0.372","3","225",NA
"79","R_3fkhimIQX2X0U1n","standard","2","9","LP","0.661783713916415","72.139","72.809","73.277","1.138","0.468","3","228",NA
"80","R_3fkhimIQX2X0U1n","standard","2","10","LP","1.25738905644119","74.292","75.551","75.954","1.662","0.403","3","231",NA
"81","R_3fkhimIQX2X0U1n","standard","2","11","LP","2.15079707022835","76.96","79.113","79.47","2.51","0.357","3","234",NA
"82","R_3fkhimIQX2X0U1n","standard","2","12","LP","8.51632916846187","80.485","89.013","89.386","8.901","0.373","3","237",NA
"83","R_3fkhimIQX2X0U1n","standard","2","13","LP","8.51632916846187","90.401","98.924","99.28","8.879","0.356","3","240",NA
"84","R_3fkhimIQX2X0U1n","standard","2","14","LP","2.15079707022835","100.283","102.449","102.806","2.523","0.357","3","243",NA
"85","R_3fkhimIQX2X0U1n","standard","2","15","LP","8.51632916846187","103.821","112.338","112.786","8.965","0.448","3","246",NA
"86","R_3fkhimIQX2X0U1n","standard","2","16","LP","2.15079707022835","113.787","115.944","116.311","2.524","0.367","3","249",NA
"87","R_3fkhimIQX2X0U1n","standard","2","17","LP","3.49090909090909","117.314","120.807","121.203","3.889","0.396","3","252",NA
"88","R_3fkhimIQX2X0U1n","standard","2","18","LP","19.8235243429556","122.207","142.031","142.408","20.201","0.377","3","255",NA
"89","R_3fkhimIQX2X0U1n","standard","2","19","LP","19.8235243429556","143.416","NaN","157.76","14.344","NaN","0","255",NA
"90","R_3fkhimIQX2X0U1n","standard","2","20","LP","3.49090909090909","158.769","162.261","162.653","3.884","0.392","3","258",NA
"91","R_3fkhimIQX2X0U1n","standard","2","21","LP","13.0392072382594","163.668","176.714","177.066","13.398","0.352","3","261",NA
"92","R_3fkhimIQX2X0U1n","standard","2","22","LP","3.49090909090909","178.073","181.564","181.957","3.884","0.393","3","264",NA
"93","R_3fkhimIQX2X0U1n","standard","2","23","LP","13.0392072382594","182.973","196.014","196.377","13.404","0.363","3","267",NA
"94","R_3fkhimIQX2X0U1n","standard","2","24","LP","19.8235243429556","197.381","NaN","211.439","14.058","NaN","0","267",NA
"95","R_3fkhimIQX2X0U1n","standard","2","25","LP","0.661783713916415","212.439","213.101","213.526","1.087","0.425","3","270",NA
"96","R_3fkhimIQX2X0U1n","standard","2","26","LP","19.8235243429556","214.528","NaN","232.685","18.157","NaN","0","270",NA
"97","R_3fkhimIQX2X0U1n","standard","2","27","LP","0.264713485566566","233.687","233.952","234.378","0.691","0.426","3","273",NA
"98","R_3fkhimIQX2X0U1n","standard","2","28","LP","13.0392072382594","235.386","248.431","248.794","13.408","0.363","3","276",NA
"99","R_3fkhimIQX2X0U1n","standard","2","29","LP","19.8235243429556","249.794","NaN","266.017","16.223","NaN","0","276",NA
"100","R_3fkhimIQX2X0U1n","standard","2","30","LP","1.25738905644119","267.018","268.281","268.697","1.679","0.416","3","279",NA
"101","R_3fkhimIQX2X0U1n","standard","2","31","LP","1.25738905644119","269.704","270.969","271.315","1.611","0.346","3","282",NA
"102","R_3fkhimIQX2X0U1n","standard","2","32","LP","30","272.324","NaN","286.698","14.374","NaN","0","282",NA
"103","R_3fkhimIQX2X0U1n","standard","2","33","LP","2.15079707022835","287.7","289.854","290.189","2.489","0.335","3","285",NA
"104","R_3fkhimIQX2X0U1n","standard","2","34","LP","3.49090909090909","291.201","294.705","295.058","3.857","0.353","3","288",NA
"105","R_3fkhimIQX2X0U1n","standard","2","35","LP","13.0392072382594","296.067","NaN","305.521","9.454","NaN","0","288",NA
"106","R_3fkhimIQX2X0U1n","standard","2","36","LP","5.5010771219302","306.531","312.035","312.41","5.879","0.375","3","291",NA
"107","R_3fkhimIQX2X0U1n","standard","2","37","LP","2.15079707022835","313.414","315.565","315.919","2.505","0.354","3","294",NA
"108","R_3fkhimIQX2X0U1n","standard","2","38","LP","0.264713485566566","316.919","317.198","317.646","0.727","0.448","3","297",NA
"109","R_3fkhimIQX2X0U1n","standard","2","39","LP","0.264713485566566","318.649","318.913","319.318","0.669","0.405","3","300",NA
"110","R_3fkhimIQX2X0U1n","standard","2","40","LP","30","320.327","NaN","335.388","15.061","NaN","0","300",NA
"111","R_3fkhimIQX2X0U1n","standard","2","41","LP","0.264713485566566","336.404","336.671","337.075","0.671","0.404","3","303",NA
"112","R_3fkhimIQX2X0U1n","standard","2","42","LP","3.49090909090909","338.077","341.571","341.948","3.871","0.377","3","306",NA
"113","R_3fkhimIQX2X0U1n","standard","2","43","LP","0.264713485566566","342.959","343.225","343.702","0.743","0.477","3","309",NA
"114","R_3fkhimIQX2X0U1n","standard","2","44","LP","30","344.705","NaN","354.749","10.044","NaN","0","309",NA
"115","R_3fkhimIQX2X0U1n","standard","2","45","LP","1.25738905644119","355.758","357.018","357.428","1.67","0.41","3","312",NA
"116","R_3fkhimIQX2X0U1n","standard","2","46","LP","8.51632916846187","358.428","366.954","367.332","8.904","0.378","3","315",NA
"117","R_3fkhimIQX2X0U1n","standard","2","47","LP","0.264713485566566","368.342","368.619","369.093","0.751","0.474","3","318",NA
"118","R_3fkhimIQX2X0U1n","standard","2","48","LP","0.264713485566566","370.1","370.37","370.786","0.686","0.416","3","321",NA
"119","R_3fkhimIQX2X0U1n","standard","2","49","LP","0.264713485566566","371.788","372.057","372.389","0.601","0.332","3","324",NA
"120","R_3fkhimIQX2X0U1n","standard","2","50","LP","2.15079707022835","373.403","375.557","375.949","2.546","0.392","3","327",NA
"121","R_3fkhimIQX2X0U1n","standard","2","51","LP","5.5010771219302","376.959","382.469","382.844","5.885","0.375","3","330",NA
"122","R_3fkhimIQX2X0U1n","standard","2","52","LP","0.661783713916415","383.857","384.526","384.906","1.049","0.38","3","333",NA
"123","R_3fkhimIQX2X0U1n","standard","2","53","LP","8.51632916846187","385.918","394.443","394.791","8.873","0.348","3","336",NA
"124","R_3fkhimIQX2X0U1n","standard","2","54","LP","30","395.798","NaN","406.639","10.841","NaN","0","336",NA
"125","R_3fkhimIQX2X0U1n","standard","2","55","LP","0.264713485566566","407.639","407.905","408.325","0.686","0.42","3","339",NA
"126","R_3fkhimIQX2X0U1n","standard","2","56","LP","19.8235243429556","409.336","NaN","423.759","14.423","NaN","0","339",NA
"127","R_3fkhimIQX2X0U1n","standard","2","57","LP","2.15079707022835","424.761","426.917","427.28","2.519","0.363","3","342",NA
"128","R_3fkhimIQX2X0U1n","standard","2","58","LP","1.25738905644119","428.281","429.541","429.927","1.646","0.386","3","345",NA
"129","R_3fkhimIQX2X0U1n","standard","2","59","LP","19.8235243429556","430.941","NaN","441.694","10.753","NaN","0","345",NA
"130","R_3fkhimIQX2X0U1n","standard","2","60","LP","13.0392072382594","442.7","NaN","452.468","9.768","NaN","0","345",NA
"131","R_3fkhimIQX2X0U1n","standard","2","61","LP","13.0392072382594","453.476","NaN","465.31","11.834","NaN","0","345",NA
"132","R_3fkhimIQX2X0U1n","standard","2","62","LP","19.8235243429556","466.32","NaN","480.325","14.005","NaN","0","345",NA
"133","R_3fkhimIQX2X0U1n","standard","2","63","LP","30","481.327","NaN","500.609","19.282","NaN","0","345",NA
"134","R_3fkhimIQX2X0U1n","standard","2","64","LP","30","501.624","NaN","516.301","14.677","NaN","0","345",NA
"135","R_3fkhimIQX2X0U1n","standard","2","65","LP","19.8235243429556","517.304","537.141","537.575","20.271","0.434","3","348",NA
"136","R_3fkhimIQX2X0U1n","standard","2","66","LP","2.15079707022835","538.579","540.738","541.143","2.564","0.405","3","351",NA
"137","R_3fkhimIQX2X0U1n","standard","2","67","LP","3.49090909090909","542.146","545.65","546.026","3.88","0.376","3","354",NA
"138","R_3fkhimIQX2X0U1n","standard","2","68","LP","0.264713485566566","547.037","547.316","547.784","0.747","0.468","3","357",NA
"139","R_3fkhimIQX2X0U1n","standard","2","69","LP","5.5010771219302","548.793","554.309","554.71","5.917","0.401","3","360",NA
"140","R_3fkhimIQX2X0U1n","standard","2","70","LP","13.0392072382594","555.711","NaN","565.574","9.863","NaN","0","360",NA
"141","R_3fkhimIQX2X0U1n","standard","2","71","LP","19.8235243429556","566.582","NaN","580.515","13.933","NaN","0","360",NA
"142","R_3fkhimIQX2X0U1n","standard","2","72","LP","0.661783713916415","581.518","582.191","582.548","1.03","0.357","3","363",NA
"143","R_3fkhimIQX2X0U1n","standard","2","73","LP","5.5010771219302","583.559","589.074","589.409","5.85","0.335","3","366",NA
"144","R_3fkhimIQX2X0U1n","standard","2","74","LP","8.51632916846187","590.412","598.93","599.308","8.896","0.378","3","369",NA
