"","subject_id","condition","n_block","n_trialIdx","f_timing_condition","n_scheduled_delay","n_trial_start_time","n_rewarded_time_fin","n_sell_time_fin","n_time_waited_fin","RT_fin","n_trial_earnings_fin","n_total_earnings_fin","keypress_times"
"1","R_3fIF4uqIFKHR9VF","standard","1","1","LP","3.49090909090909","0.001","3.507","3.869","3.868","0.362","3","3",""
"2","R_3fIF4uqIFKHR9VF","standard","1","2","LP","3.49090909090909","4.874","8.371","8.741","3.867","0.37","3","6",""
"3","R_3fIF4uqIFKHR9VF","standard","1","3","LP","0.661783713916415","9.746","10.415","10.902","1.156","0.487","3","9",""
"4","R_3fIF4uqIFKHR9VF","standard","1","4","LP","13.0392072382594","11.911","24.954","25.248","13.337","0.294","3","12",""
"5","R_3fIF4uqIFKHR9VF","standard","1","5","LP","1.25738905644119","26.25","27.519","27.928","1.678","0.409","3","15",""
"6","R_3fIF4uqIFKHR9VF","standard","1","6","LP","30","28.94","58.946","59.276","30.336","0.33","3","18",""
"7","R_3fIF4uqIFKHR9VF","standard","1","7","LP","13.0392072382594","60.282","73.322","73.662","13.38","0.34","3","21",""
"8","R_3fIF4uqIFKHR9VF","standard","1","8","LP","30","74.666","104.685","104.961","30.295","0.276","3","24",""
"9","R_3fIF4uqIFKHR9VF","standard","1","9","LP","5.5010771219302","105.97","111.475","111.794","5.824","0.319","3","27",""
"10","R_3fIF4uqIFKHR9VF","standard","1","10","LP","5.5010771219302","112.802","118.307","118.707","5.905","0.4","3","30",""
"11","R_3fIF4uqIFKHR9VF","standard","1","11","LP","5.5010771219302","119.721","125.226","125.572","5.851","0.346","3","33",""
"12","R_3fIF4uqIFKHR9VF","standard","1","12","LP","1.25738905644119","126.578","127.842","128.252","1.674","0.41","3","36",""
"13","R_3fIF4uqIFKHR9VF","standard","1","13","LP","2.15079707022835","129.258","131.412","131.861","2.603","0.449","3","39",""
"14","R_3fIF4uqIFKHR9VF","standard","1","14","LP","0.661783713916415","132.866","133.53","133.925","1.059","0.395","3","42",""
"15","R_3fIF4uqIFKHR9VF","standard","1","15","LP","2.15079707022835","134.926","137.082","137.421","2.495","0.339","3","45",""
"16","R_3fIF4uqIFKHR9VF","standard","1","16","LP","13.0392072382594","138.438","151.482","151.831","13.393","0.349","3","48",""
"17","R_3fIF4uqIFKHR9VF","standard","1","17","LP","1.25738905644119","152.835","154.108","154.463","1.628","0.355","3","51",""
"18","R_3fIF4uqIFKHR9VF","standard","1","18","LP","3.49090909090909","155.466","158.97","159.344","3.878","0.374","3","54",""
"19","R_3fIF4uqIFKHR9VF","standard","1","19","LP","0.264713485566566","160.346","160.613","161.016","0.67","0.403","3","57",""
"20","R_3fIF4uqIFKHR9VF","standard","1","20","LP","5.5010771219302","162.018","167.523","167.865","5.847","0.342","3","60",""
"21","R_3fIF4uqIFKHR9VF","standard","1","21","LP","3.49090909090909","168.888","172.386","172.77","3.882","0.384","3","63",""
"22","R_3fIF4uqIFKHR9VF","standard","1","22","LP","3.49090909090909","173.778","177.274","177.562","3.784","0.288","3","66",""
"23","R_3fIF4uqIFKHR9VF","standard","1","23","LP","2.15079707022835","178.57","180.723","181.099","2.529","0.376","3","69",""
"24","R_3fIF4uqIFKHR9VF","standard","1","24","LP","5.5010771219302","182.122","187.625","187.988","5.866","0.363","3","72",""
"25","R_3fIF4uqIFKHR9VF","standard","1","25","LP","13.0392072382594","189.005","202.064","202.437","13.432","0.373","3","75",""
"26","R_3fIF4uqIFKHR9VF","standard","1","26","LP","0.661783713916415","203.442","204.11","204.509","1.067","0.399","3","78",""
"27","R_3fIF4uqIFKHR9VF","standard","1","27","LP","0.264713485566566","205.515","205.796","206.222","0.707","0.426","3","81",""
"28","R_3fIF4uqIFKHR9VF","standard","1","28","LP","2.15079707022835","207.226","209.378","209.75","2.524","0.372","3","84",""
"29","R_3fIF4uqIFKHR9VF","standard","1","29","LP","5.5010771219302","210.754","216.258","216.599","5.845","0.341","3","87",""
"30","R_3fIF4uqIFKHR9VF","standard","1","30","LP","5.5010771219302","217.601","223.113","223.472","5.871","0.359","3","90",""
"31","R_3fIF4uqIFKHR9VF","standard","1","31","LP","2.15079707022835","224.48","226.631","227.104","2.624","0.473","3","93",""
"32","R_3fIF4uqIFKHR9VF","standard","1","32","LP","3.49090909090909","228.115","231.609","231.913","3.798","0.304","3","96",""
"33","R_3fIF4uqIFKHR9VF","standard","1","33","LP","8.51632916846187","232.919","241.441","241.81","8.891","0.369","3","99",""
"34","R_3fIF4uqIFKHR9VF","standard","1","34","LP","13.0392072382594","242.812","255.859","256.212","13.4","0.353","3","102",""
"35","R_3fIF4uqIFKHR9VF","standard","1","35","LP","2.15079707022835","257.218","259.383","259.78","2.562","0.397","3","105",""
"36","R_3fIF4uqIFKHR9VF","standard","1","36","LP","0.264713485566566","260.787","261.058","261.452","0.665","0.394","3","108",""
"37","R_3fIF4uqIFKHR9VF","standard","1","37","LP","1.25738905644119","262.459","263.719","264.108","1.649","0.389","3","111",""
"38","R_3fIF4uqIFKHR9VF","standard","1","38","LP","8.51632916846187","265.116","273.636","273.998","8.882","0.362","3","114",""
"39","R_3fIF4uqIFKHR9VF","standard","1","39","LP","3.49090909090909","275.012","278.514","278.87","3.858","0.356","3","117",""
"40","R_3fIF4uqIFKHR9VF","standard","1","40","LP","2.15079707022835","279.874","282.025","282.423","2.549","0.398","3","120",""
"41","R_3fIF4uqIFKHR9VF","standard","1","41","LP","0.264713485566566","283.426","283.69","284.135","0.709","0.445","3","123",""
"42","R_3fIF4uqIFKHR9VF","standard","1","42","LP","13.0392072382594","285.138","298.177","298.521","13.383","0.344","3","126",""
"43","R_3fIF4uqIFKHR9VF","standard","1","43","LP","5.5010771219302","299.522","305.025","305.378","5.856","0.353","3","129",""
"44","R_3fIF4uqIFKHR9VF","standard","1","44","LP","0.661783713916415","306.386","307.058","307.474","1.088","0.416","3","132",""
"45","R_3fIF4uqIFKHR9VF","standard","1","45","LP","19.8235243429556","308.481","328.312","328.621","20.14","0.309","3","135",""
"46","R_3fIF4uqIFKHR9VF","standard","1","46","LP","2.15079707022835","329.627","331.785","332.125","2.498","0.34","3","138",""
"47","R_3fIF4uqIFKHR9VF","standard","1","47","LP","19.8235243429556","333.129","352.954","353.304","20.175","0.35","3","141",""
"48","R_3fIF4uqIFKHR9VF","standard","1","48","LP","0.661783713916415","354.319","354.986","355.488","1.169","0.502","3","144",""
"49","R_3fIF4uqIFKHR9VF","standard","1","49","LP","13.0392072382594","356.49","369.53","369.93","13.44","0.4","3","147",""
"50","R_3fIF4uqIFKHR9VF","standard","1","50","LP","0.264713485566566","370.944","371.211","371.61","0.666","0.399","3","150",""
"51","R_3fIF4uqIFKHR9VF","standard","1","51","LP","2.15079707022835","372.613","374.77","375.179","2.566","0.409","3","153",""
"52","R_3fIF4uqIFKHR9VF","standard","1","52","LP","8.51632916846187","376.188","384.708","385.236","9.048","0.528","3","156",""
"53","R_3fIF4uqIFKHR9VF","standard","1","53","LP","30","386.243","416.25","416.496","30.253","0.246","3","159",""
"54","R_3fIF4uqIFKHR9VF","standard","1","54","LP","19.8235243429556","417.508","437.338","437.682","20.174","0.344","3","162",""
"55","R_3fIF4uqIFKHR9VF","standard","1","55","LP","0.661783713916415","438.69","439.354","439.73","1.04","0.376","3","165",""
"56","R_3fIF4uqIFKHR9VF","standard","1","56","LP","0.264713485566566","440.738","441.014","441.451","0.713","0.437","3","168",""
"57","R_3fIF4uqIFKHR9VF","standard","1","57","LP","5.5010771219302","442.458","447.962","448.348","5.89","0.386","3","171",""
"58","R_3fIF4uqIFKHR9VF","standard","1","58","LP","13.0392072382594","449.354","462.408","462.774","13.42","0.366","3","174",""
"59","R_3fIF4uqIFKHR9VF","standard","1","59","LP","3.49090909090909","463.781","467.274","467.638","3.857","0.364","3","177",""
"60","R_3fIF4uqIFKHR9VF","standard","1","60","LP","2.15079707022835","468.642","470.803","471.158","2.516","0.355","3","180",""
"61","R_3fIF4uqIFKHR9VF","standard","1","61","LP","1.25738905644119","472.172","473.434","473.799","1.627","0.365","3","183",""
"62","R_3fIF4uqIFKHR9VF","standard","1","62","LP","5.5010771219302","474.808","480.312","480.671","5.863","0.359","3","186",""
"63","R_3fIF4uqIFKHR9VF","standard","1","63","LP","30","481.677","511.682","511.955","30.278","0.273","3","189",""
"64","R_3fIF4uqIFKHR9VF","standard","1","64","LP","19.8235243429556","512.962","532.787","533.158","20.196","0.371","3","192",""
"65","R_3fIF4uqIFKHR9VF","standard","1","65","LP","30","534.162","564.17","564.482","30.32","0.312","3","195",""
"66","R_3fIF4uqIFKHR9VF","standard","1","66","LP","1.25738905644119","565.49","566.754","567.17","1.68","0.416","3","198",""
"67","R_3fIF4uqIFKHR9VF","standard","1","67","LP","19.8235243429556","568.178","588.012","588.405","20.227","0.393","3","201",""
"68","R_3fIF4uqIFKHR9VF","standard","1","68","LP","0.264713485566566","589.416","589.682","590.117","0.701","0.435","3","204",""
"69","R_3fIF4uqIFKHR9VF","standard","1","69","LP","30","591.123","621.127","621.408","30.285","0.281","3","207",""
"70","R_3fIF4uqIFKHR9VF","standard","1","70","LP","2.15079707022835","622.411","624.569","624.952","2.541","0.383","3","210",""
"71","R_3fIF4uqIFKHR9VF","standard","1","71","LP","0.264713485566566","625.953","626.219","626.649","0.696","0.43","3","213",""
"72","R_3fIF4uqIFKHR9VF","standard","1","72","LP","8.51632916846187","627.658","636.178","636.69","9.032","0.512","3","216",""
"73","R_3fIF4uqIFKHR9VF","standard","1","73","LP","5.5010771219302","637.698","643.208","643.539","5.841","0.331","3","219",""
"74","R_3fIF4uqIFKHR9VF","standard","1","74","LP","13.0392072382594","644.551","657.6","657.925","13.374","0.325","3","222",""
"75","R_3fIF4uqIFKHR9VF","standard","1","75","LP","0.661783713916415","658.93","659.597","660.293","1.363","0.696","3","225",""
"76","R_3fIF4uqIFKHR9VF","standard","1","76","LP","13.0392072382594","661.304","674.345","674.719","13.415","0.374","3","228",""
"77","R_3fIF4uqIFKHR9VF","standard","1","77","LP","19.8235243429556","675.721","695.547","695.962","20.241","0.415","3","231",""
"78","R_3fIF4uqIFKHR9VF","standard","1","78","LP","2.15079707022835","696.977","699.13","699.626","2.649","0.496","3","234",""
"79","R_3fIF4uqIFKHR9VF","standard","1","79","LP","3.49090909090909","700.63","704.122","704.499","3.869","0.377","3","237",""
"80","R_3fIF4uqIFKHR9VF","standard","1","80","LP","30","705.513","735.517","735.799","30.286","0.282","3","240",""
"81","R_3fIF4uqIFKHR9VF","standard","1","81","LP","19.8235243429556","736.804","756.634","756.985","20.181","0.351","3","243",""
"82","R_3fIF4uqIFKHR9VF","standard","1","82","LP","2.15079707022835","757.996","760.153","760.529","2.533","0.376","3","246",""
"83","R_3fIF4uqIFKHR9VF","standard","1","83","LP","5.5010771219302","761.529","767.033","767.386","5.857","0.353","3","249",""
"84","R_3fIF4uqIFKHR9VF","standard","1","84","LP","0.264713485566566","768.396","768.665","769.178","0.782","0.513","3","252",""
"85","R_3fIF4uqIFKHR9VF","standard","1","85","LP","8.51632916846187","770.186","778.714","779.155","8.969","0.441","3","255",""
"86","R_3fIF4uqIFKHR9VF","standard","1","86","LP","0.661783713916415","780.162","780.824","781.227","1.065","0.403","3","258",""
"87","R_3fIF4uqIFKHR9VF","standard","1","87","LP","30","782.234","812.257","812.529","30.295","0.272","3","261",""
"88","R_3fIF4uqIFKHR9VF","standard","1","88","LP","13.0392072382594","813.529","826.57","826.947","13.418","0.377","3","264",""
"89","R_3fIF4uqIFKHR9VF","standard","1","89","LP","5.5010771219302","827.955","833.458","833.835","5.88","0.377","3","267",""
"90","R_3fIF4uqIFKHR9VF","standard","1","90","LP","13.0392072382594","834.842","847.883","848.261","13.419","0.378","3","270",""
"91","R_3fIF4uqIFKHR9VF","standard","1","91","LP","30","849.271","879.283","879.656","30.385","0.373","3","273",""
"92","R_3fIF4uqIFKHR9VF","standard","2","1","LP","13.0392072382594","0","NaN","5.629","5.629","NaN","0","273",NA
"93","R_3fIF4uqIFKHR9VF","standard","2","2","LP","5.5010771219302","6.63","NaN","10.766","4.136","NaN","0","273",NA
"94","R_3fIF4uqIFKHR9VF","standard","2","3","LP","8.51632916846187","11.779","NaN","15.614","3.835","NaN","0","273",NA
"95","R_3fIF4uqIFKHR9VF","standard","2","4","LP","30","16.62","NaN","21.336","4.716","NaN","0","273",NA
"96","R_3fIF4uqIFKHR9VF","standard","2","5","LP","13.0392072382594","22.342","NaN","32.297","9.955","NaN","0","273",NA
"97","R_3fIF4uqIFKHR9VF","standard","2","6","LP","2.15079707022835","33.302","35.454","35.969","2.667","0.515","3","276",NA
"98","R_3fIF4uqIFKHR9VF","standard","2","7","LP","13.0392072382594","36.974","NaN","46.291","9.317","NaN","0","276",NA
"99","R_3fIF4uqIFKHR9VF","standard","2","8","LP","30","47.3","NaN","56.324","9.024","NaN","0","276",NA
"100","R_3fIF4uqIFKHR9VF","standard","2","9","LP","0.661783713916415","57.327","58","58.589","1.262","0.589","3","279",NA
"101","R_3fIF4uqIFKHR9VF","standard","2","10","LP","8.51632916846187","59.592","68.109","68.486","8.894","0.377","3","282",NA
"102","R_3fIF4uqIFKHR9VF","standard","2","11","LP","3.49090909090909","69.487","72.984","73.375","3.888","0.391","3","285",NA
"103","R_3fIF4uqIFKHR9VF","standard","2","12","LP","5.5010771219302","74.383","79.895","80.295","5.912","0.4","3","288",NA
"104","R_3fIF4uqIFKHR9VF","standard","2","13","LP","30","81.304","NaN","90.345","9.041","NaN","0","288",NA
"105","R_3fIF4uqIFKHR9VF","standard","2","14","LP","30","91.352","NaN","100.337","8.985","NaN","0","288",NA
"106","R_3fIF4uqIFKHR9VF","standard","2","15","LP","19.8235243429556","101.349","NaN","110.355","9.006","NaN","0","288",NA
"107","R_3fIF4uqIFKHR9VF","standard","2","16","LP","19.8235243429556","111.359","NaN","120.388","9.029","NaN","0","288",NA
"108","R_3fIF4uqIFKHR9VF","standard","2","17","LP","2.15079707022835","121.392","123.551","124.005","2.613","0.454","3","291",NA
"109","R_3fIF4uqIFKHR9VF","standard","2","18","LP","3.49090909090909","125.008","128.503","128.917","3.909","0.414","3","294",NA
"110","R_3fIF4uqIFKHR9VF","standard","2","19","LP","2.15079707022835","129.92","132.071","132.566","2.646","0.495","3","297",NA
"111","R_3fIF4uqIFKHR9VF","standard","2","20","LP","5.5010771219302","133.568","139.087","139.486","5.918","0.399","3","300",NA
"112","R_3fIF4uqIFKHR9VF","standard","2","21","LP","19.8235243429556","140.495","NaN","149.432","8.937","NaN","0","300",NA
"113","R_3fIF4uqIFKHR9VF","standard","2","22","LP","8.51632916846187","150.444","158.967","159.377","8.933","0.41","3","303",NA
"114","R_3fIF4uqIFKHR9VF","standard","2","23","LP","30","160.383","NaN","169.491","9.108","NaN","0","303",NA
"115","R_3fIF4uqIFKHR9VF","standard","2","24","LP","5.5010771219302","170.508","176.012","176.427","5.919","0.415","3","306",NA
"116","R_3fIF4uqIFKHR9VF","standard","2","25","LP","1.25738905644119","177.432","178.695","179.155","1.723","0.46","3","309",NA
"117","R_3fIF4uqIFKHR9VF","standard","2","26","LP","0.264713485566566","180.16","180.426","181.052","0.892","0.626","3","312",NA
"118","R_3fIF4uqIFKHR9VF","standard","2","27","LP","3.49090909090909","182.055","185.552","185.972","3.917","0.42","3","315",NA
"119","R_3fIF4uqIFKHR9VF","standard","2","28","LP","3.49090909090909","186.975","190.486","190.909","3.934","0.423","3","318",NA
"120","R_3fIF4uqIFKHR9VF","standard","2","29","LP","19.8235243429556","191.909","NaN","200.414","8.505","NaN","0","318",NA
"121","R_3fIF4uqIFKHR9VF","standard","2","30","LP","0.264713485566566","201.415","201.687","202.19","0.775","0.503","3","321",NA
"122","R_3fIF4uqIFKHR9VF","standard","2","31","LP","0.661783713916415","203.191","203.855","204.302","1.111","0.447","3","324",NA
"123","R_3fIF4uqIFKHR9VF","standard","2","32","LP","30","205.303","NaN","214.312","9.009","NaN","0","324",NA
"124","R_3fIF4uqIFKHR9VF","standard","2","33","LP","2.15079707022835","215.315","217.471","218.104","2.789","0.633","3","327",NA
"125","R_3fIF4uqIFKHR9VF","standard","2","34","LP","0.264713485566566","219.119","219.399","219.816","0.697","0.417","3","330",NA
"126","R_3fIF4uqIFKHR9VF","standard","2","35","LP","0.661783713916415","220.82","221.488","221.888","1.068","0.4","3","333",NA
"127","R_3fIF4uqIFKHR9VF","standard","2","36","LP","0.264713485566566","222.896","223.171","223.585","0.689","0.414","3","336",NA
"128","R_3fIF4uqIFKHR9VF","standard","2","37","LP","0.264713485566566","224.591","224.863","225.385","0.794","0.522","3","339",NA
"129","R_3fIF4uqIFKHR9VF","standard","2","38","LP","5.5010771219302","226.394","231.903","232.306","5.912","0.403","3","342",NA
"130","R_3fIF4uqIFKHR9VF","standard","2","39","LP","1.25738905644119","233.309","234.567","234.97","1.661","0.403","3","345",NA
"131","R_3fIF4uqIFKHR9VF","standard","2","40","LP","13.0392072382594","235.976","NaN","245.348","9.372","NaN","0","345",NA
"132","R_3fIF4uqIFKHR9VF","standard","2","41","LP","19.8235243429556","246.351","NaN","255.374","9.023","NaN","0","345",NA
"133","R_3fIF4uqIFKHR9VF","standard","2","42","LP","3.49090909090909","256.375","259.872","260.261","3.886","0.389","3","348",NA
"134","R_3fIF4uqIFKHR9VF","standard","2","43","LP","30","261.263","NaN","270.055","8.792","NaN","0","348",NA
"135","R_3fIF4uqIFKHR9VF","standard","2","44","LP","13.0392072382594","271.063","NaN","280.272","9.209","NaN","0","348",NA
"136","R_3fIF4uqIFKHR9VF","standard","2","45","LP","19.8235243429556","281.279","NaN","290.353","9.074","NaN","0","348",NA
"137","R_3fIF4uqIFKHR9VF","standard","2","46","LP","30","291.359","NaN","302.323","10.964","NaN","0","348",NA
"138","R_3fIF4uqIFKHR9VF","standard","2","47","LP","13.0392072382594","303.327","NaN","314.348","11.021","NaN","0","348",NA
"139","R_3fIF4uqIFKHR9VF","standard","2","48","LP","3.49090909090909","315.357","318.869","319.276","3.919","0.407","3","351",NA
"140","R_3fIF4uqIFKHR9VF","standard","2","49","LP","5.5010771219302","320.279","325.783","326.141","5.862","0.358","3","354",NA
"141","R_3fIF4uqIFKHR9VF","standard","2","50","LP","0.661783713916415","327.143","327.808","328.301","1.158","0.493","3","357",NA
"142","R_3fIF4uqIFKHR9VF","standard","2","51","LP","13.0392072382594","329.303","NaN","340.279","10.976","NaN","0","357",NA
"143","R_3fIF4uqIFKHR9VF","standard","2","52","LP","0.264713485566566","341.287","341.559","342.079","0.792","0.52","3","360",NA
"144","R_3fIF4uqIFKHR9VF","standard","2","53","LP","0.264713485566566","343.087","343.359","343.711","0.624","0.352","3","363",NA
"145","R_3fIF4uqIFKHR9VF","standard","2","54","LP","13.0392072382594","344.716","NaN","354.593","9.877","NaN","0","363",NA
"146","R_3fIF4uqIFKHR9VF","standard","2","55","LP","5.5010771219302","355.6","361.104","361.498","5.898","0.394","3","366",NA
"147","R_3fIF4uqIFKHR9VF","standard","2","56","LP","0.264713485566566","362.503","362.775","363.178","0.675","0.403","3","369",NA
"148","R_3fIF4uqIFKHR9VF","standard","2","57","LP","1.25738905644119","364.183","365.448","365.81","1.627","0.362","3","372",NA
"149","R_3fIF4uqIFKHR9VF","standard","2","58","LP","2.15079707022835","366.813","368.974","369.371","2.558","0.397","3","375",NA
"150","R_3fIF4uqIFKHR9VF","standard","2","59","LP","2.15079707022835","370.375","372.527","373.123","2.748","0.596","3","378",NA
"151","R_3fIF4uqIFKHR9VF","standard","2","60","LP","0.264713485566566","374.129","374.4","374.803","0.674","0.403","3","381",NA
"152","R_3fIF4uqIFKHR9VF","standard","2","61","LP","19.8235243429556","375.807","NaN","384.333","8.526","NaN","0","381",NA
"153","R_3fIF4uqIFKHR9VF","standard","2","62","LP","0.661783713916415","385.346","386.008","386.397","1.051","0.389","3","384",NA
"154","R_3fIF4uqIFKHR9VF","standard","2","63","LP","3.49090909090909","387.407","390.914","391.325","3.918","0.411","3","387",NA
"155","R_3fIF4uqIFKHR9VF","standard","2","64","LP","8.51632916846187","392.328","400.847","401.263","8.935","0.416","3","390",NA
"156","R_3fIF4uqIFKHR9VF","standard","2","65","LP","0.661783713916415","402.271","402.944","403.367","1.096","0.423","3","393",NA
"157","R_3fIF4uqIFKHR9VF","standard","2","66","LP","2.15079707022835","404.375","406.528","406.975","2.6","0.447","3","396",NA
"158","R_3fIF4uqIFKHR9VF","standard","2","67","LP","3.49090909090909","407.983","411.479","411.848","3.865","0.369","3","399",NA
"159","R_3fIF4uqIFKHR9VF","standard","2","68","LP","1.25738905644119","412.855","414.118","414.496","1.641","0.378","3","402",NA
"160","R_3fIF4uqIFKHR9VF","standard","2","69","LP","13.0392072382594","415.503","NaN","425.242","9.739","NaN","0","402",NA
"161","R_3fIF4uqIFKHR9VF","standard","2","70","LP","19.8235243429556","426.247","NaN","435.307","9.06","NaN","0","402",NA
"162","R_3fIF4uqIFKHR9VF","standard","2","71","LP","0.264713485566566","436.308","436.582","437.067","0.759","0.485","3","405",NA
"163","R_3fIF4uqIFKHR9VF","standard","2","72","LP","0.264713485566566","438.072","438.351","438.771","0.699","0.42","3","408",NA
"164","R_3fIF4uqIFKHR9VF","standard","2","73","LP","5.5010771219302","439.775","445.279","445.7","5.925","0.421","3","411",NA
"165","R_3fIF4uqIFKHR9VF","standard","2","74","LP","0.264713485566566","446.703","446.975","447.484","0.781","0.509","3","414",NA
"166","R_3fIF4uqIFKHR9VF","standard","2","75","LP","5.5010771219302","448.488","453.992","454.421","5.933","0.429","3","417",NA
"167","R_3fIF4uqIFKHR9VF","standard","2","76","LP","0.661783713916415","455.423","456.087","456.518","1.095","0.431","3","420",NA
"168","R_3fIF4uqIFKHR9VF","standard","2","77","LP","3.49090909090909","457.519","461.018","461.398","3.879","0.38","3","423",NA
"169","R_3fIF4uqIFKHR9VF","standard","2","78","LP","13.0392072382594","462.408","NaN","472.312","9.904","NaN","0","423",NA
"170","R_3fIF4uqIFKHR9VF","standard","2","79","LP","13.0392072382594","473.313","NaN","482.312","8.999","NaN","0","423",NA
"171","R_3fIF4uqIFKHR9VF","standard","2","80","LP","5.5010771219302","483.319","488.823","489.25","5.931","0.427","3","426",NA
"172","R_3fIF4uqIFKHR9VF","standard","2","81","LP","19.8235243429556","490.255","NaN","499.555","9.3","NaN","0","426",NA
"173","R_3fIF4uqIFKHR9VF","standard","2","82","LP","13.0392072382594","500.559","NaN","510.26","9.701","NaN","0","426",NA
"174","R_3fIF4uqIFKHR9VF","standard","2","83","LP","0.264713485566566","511.264","511.535","511.948","0.684","0.413","3","429",NA
"175","R_3fIF4uqIFKHR9VF","standard","2","84","LP","2.15079707022835","512.956","515.11","515.46","2.504","0.35","3","432",NA
"176","R_3fIF4uqIFKHR9VF","standard","2","85","LP","2.15079707022835","516.463","518.616","519.045","2.582","0.429","3","435",NA
"177","R_3fIF4uqIFKHR9VF","standard","2","86","LP","1.25738905644119","520.047","521.308","521.718","1.671","0.41","3","438",NA
"178","R_3fIF4uqIFKHR9VF","standard","2","87","LP","19.8235243429556","522.719","NaN","532.31","9.591","NaN","0","438",NA
"179","R_3fIF4uqIFKHR9VF","standard","2","88","LP","19.8235243429556","533.317","NaN","542.311","8.994","NaN","0","438",NA
"180","R_3fIF4uqIFKHR9VF","standard","2","89","LP","0.661783713916415","543.318","543.982","544.415","1.097","0.433","3","441",NA
"181","R_3fIF4uqIFKHR9VF","standard","2","90","LP","2.15079707022835","545.418","547.575","547.968","2.55","0.393","3","444",NA
"182","R_3fIF4uqIFKHR9VF","standard","2","91","LP","19.8235243429556","548.974","NaN","558.417","9.443","NaN","0","444",NA
"183","R_3fIF4uqIFKHR9VF","standard","2","92","LP","3.49090909090909","559.42","562.913","563.305","3.885","0.392","3","447",NA
"184","R_3fIF4uqIFKHR9VF","standard","2","93","LP","0.661783713916415","564.306","564.974","565.53","1.224","0.556","3","450",NA
"185","R_3fIF4uqIFKHR9VF","standard","2","94","LP","1.25738905644119","566.536","567.809","568.21","1.674","0.401","3","453",NA
"186","R_3fIF4uqIFKHR9VF","standard","2","95","LP","13.0392072382594","569.211","NaN","578.388","9.177","NaN","0","453",NA
"187","R_3fIF4uqIFKHR9VF","standard","2","96","LP","0.264713485566566","579.397","579.663","580.092","0.695","0.429","3","456",NA
"188","R_3fIF4uqIFKHR9VF","standard","2","97","LP","2.15079707022835","581.094","583.246","583.7","2.606","0.454","3","459",NA
"189","R_3fIF4uqIFKHR9VF","standard","2","98","LP","0.264713485566566","584.702","584.975","585.396","0.694","0.421","3","462",NA
"190","R_3fIF4uqIFKHR9VF","standard","2","99","LP","0.661783713916415","586.409","587.071","587.485","1.076","0.414","3","465",NA
"191","R_3fIF4uqIFKHR9VF","standard","2","100","LP","0.661783713916415","588.488","589.151","589.526","1.038","0.375","3","468",NA
"192","R_3fIF4uqIFKHR9VF","standard","2","101","LP","2.15079707022835","590.531","592.693","593.046","2.515","0.353","3","471",NA
"193","R_3fIF4uqIFKHR9VF","standard","2","102","LP","3.49090909090909","594.047","597.543","597.903","3.856","0.36","3","474",NA
