"","subject_id","condition","n_block","n_trialIdx","f_timing_condition","n_scheduled_delay","n_trial_start_time","n_rewarded_time_fin","n_sell_time_fin","n_time_waited_fin","RT_fin","n_trial_earnings_fin","n_total_earnings_fin","keypress_times"
"1","R_3fCxGH0pr2b1C1N","standard","1","1","LP","0.264713485566566","0.001","0.267","NA","1.285","NA","0","0",""
"2","R_3fCxGH0pr2b1C1N","standard","1","2","LP","0.661783713916415","2.303","2.98","3.862","1.559","0.882","3","3",""
"3","R_3fCxGH0pr2b1C1N","standard","1","3","LP","2.15079707022835","4.881","7.036","7.74","2.859","0.704","3","3","692"
"4","R_3fCxGH0pr2b1C1N","standard","1","4","LP","8.51632916846187","8.747","17.281","17.955","9.208","0.674","3","3","5414"
"5","R_3fCxGH0pr2b1C1N","standard","1","5","LP","8.51632916846187","18.956","27.484","NA","9.546","NA","0","0","c(""6808"", ""7687"")"
"6","R_3fCxGH0pr2b1C1N","standard","1","6","LP","0.264713485566566","29.537","29.812","NA","1.275","NA","0","0",""
"7","R_3fCxGH0pr2b1C1N","standard","1","7","LP","0.264713485566566","31.814","32.085","32.822","1.008","0.737","3","3",""
"8","R_3fCxGH0pr2b1C1N","standard","1","8","LP","5.5010771219302","33.828","39.345","40.063","6.235","0.718","3","6",""
"9","R_3fCxGH0pr2b1C1N","standard","1","9","LP","3.49090909090909","41.085","44.593","45.471","4.386","0.878","3","9",""
"10","R_3fCxGH0pr2b1C1N","standard","1","10","LP","30","46.476","76.479","NA","31.026","NA","0","0","c(""13385"", ""21781"", ""23647"", ""26175"")"
"11","R_3fCxGH0pr2b1C1N","standard","1","11","LP","0.661783713916415","78.51","79.181","NA","1.686","NA","0","0",""
"12","R_3fCxGH0pr2b1C1N","standard","1","12","LP","19.8235243429556","81.225","101.061","NA","20.854","NA","0","0",""
"13","R_3fCxGH0pr2b1C1N","standard","1","13","LP","0.661783713916415","103.092","103.757","NA","1.673","NA","0","0",""
"14","R_3fCxGH0pr2b1C1N","standard","1","14","LP","0.264713485566566","105.777","106.045","NA","1.289","NA","0","0",""
"15","R_3fCxGH0pr2b1C1N","standard","1","15","LP","2.15079707022835","108.076","110.229","NA","3.166","NA","0","0","c(""39"", ""806"", ""1150"", ""1358"")"
"16","R_3fCxGH0pr2b1C1N","standard","1","16","LP","5.5010771219302","112.253","117.756","118.441","6.188","0.685","3","3",""
"17","R_3fCxGH0pr2b1C1N","standard","1","17","LP","3.49090909090909","119.444","122.94","123.595","4.151","0.655","3","6",""
"18","R_3fCxGH0pr2b1C1N","standard","1","18","LP","3.49090909090909","124.608","128.118","128.749","4.141","0.631","3","9",""
"19","R_3fCxGH0pr2b1C1N","standard","1","19","LP","3.49090909090909","129.756","133.252","133.883","4.127","0.631","3","12",""
"20","R_3fCxGH0pr2b1C1N","standard","1","20","LP","30","134.91","164.924","165.674","30.764","0.75","3","12","20281"
"21","R_3fCxGH0pr2b1C1N","standard","1","21","LP","8.51632916846187","166.689","175.207","NA","9.52","NA","0","12",""
"22","R_3fCxGH0pr2b1C1N","standard","1","22","LP","3.49090909090909","177.209","180.708","NA","4.502","NA","0","12",""
"23","R_3fCxGH0pr2b1C1N","standard","1","23","LP","30","182.717","212.718","NA","31.016","NA","0","12",""
"24","R_3fCxGH0pr2b1C1N","standard","1","24","LP","13.0392072382594","214.739","227.78","NA","14.05","NA","0","12",""
"25","R_3fCxGH0pr2b1C1N","standard","1","25","LP","0.661783713916415","229.803","230.472","NA","1.685","NA","0","12",""
"26","R_3fCxGH0pr2b1C1N","standard","1","26","LP","30","232.506","262.516","NA","31.021","NA","0","0","c(""26073"", ""26874"", ""27448"", ""28135"")"
"27","R_3fCxGH0pr2b1C1N","standard","1","27","LP","19.8235243429556","264.531","284.36","285.075","20.544","0.715","3","3","c(""2322"", ""3084"", ""3958"", ""4440"", ""4687"", ""8409"", ""8707"", ""8922"", ""11065"", ""11368"", ""11644"", ""12271"", ""13604"", ""14050"", ""14435"", ""14881"", ""15229"", ""15544"")"
"28","R_3fCxGH0pr2b1C1N","standard","1","28","LP","0.661783713916415","286.086","286.753","NA","1.682","NA","0","3",""
"29","R_3fCxGH0pr2b1C1N","standard","1","29","LP","0.661783713916415","288.785","289.452","289.734","0.949","0.282","3","6",""
"30","R_3fCxGH0pr2b1C1N","standard","1","30","LP","0.661783713916415","290.737","291.418","292.072","1.335","0.654","3","9",""
"31","R_3fCxGH0pr2b1C1N","standard","1","31","LP","3.49090909090909","293.085","296.581","297.367","4.282","0.786","3","12",""
"32","R_3fCxGH0pr2b1C1N","standard","1","32","LP","3.49090909090909","298.387","301.886","302.585","4.198","0.699","3","15",""
"33","R_3fCxGH0pr2b1C1N","standard","1","33","LP","19.8235243429556","303.588","323.422","324.168","20.58","0.746","3","12","c(""11199"", ""12881"")"
"34","R_3fCxGH0pr2b1C1N","standard","1","34","LP","3.49090909090909","325.216","328.749","329.624","4.408","0.875","3","15",""
"35","R_3fCxGH0pr2b1C1N","standard","1","35","LP","0.264713485566566","330.629","330.915","331.684","1.055","0.769","3","18",""
"36","R_3fCxGH0pr2b1C1N","standard","1","36","LP","2.15079707022835","332.701","334.853","335.529","2.828","0.676","3","21",""
"37","R_3fCxGH0pr2b1C1N","standard","1","37","LP","8.51632916846187","336.533","345.067","345.86","9.327","0.793","3","24",""
"38","R_3fCxGH0pr2b1C1N","standard","1","38","LP","30","346.868","376.875","377.537","30.669","0.662","3","27",""
"39","R_3fCxGH0pr2b1C1N","standard","1","39","LP","2.15079707022835","378.582","380.739","NA","3.159","NA","0","27",""
"40","R_3fCxGH0pr2b1C1N","standard","1","40","LP","1.25738905644119","382.752","384.013","NA","2.263","NA","0","24","669"
"41","R_3fCxGH0pr2b1C1N","standard","1","41","LP","8.51632916846187","386.014","394.531","395.411","9.397","0.88","3","27",""
"42","R_3fCxGH0pr2b1C1N","standard","1","42","LP","5.5010771219302","396.416","401.924","402.78","6.364","0.856","3","30",""
"43","R_3fCxGH0pr2b1C1N","standard","1","43","LP","0.661783713916415","403.781","404.443","NA","1.664","NA","0","30",""
"44","R_3fCxGH0pr2b1C1N","standard","1","44","LP","0.661783713916415","406.465","407.132","408.044","1.579","0.912","3","33",""
"45","R_3fCxGH0pr2b1C1N","standard","1","45","LP","0.264713485566566","409.065","409.332","410.31","1.245","0.978","3","36",""
"46","R_3fCxGH0pr2b1C1N","standard","1","46","LP","2.15079707022835","411.322","413.48","414.25","2.928","0.77","3","39",""
"47","R_3fCxGH0pr2b1C1N","standard","1","47","LP","30","415.252","445.277","446.08","30.828","0.803","3","42",""
"48","R_3fCxGH0pr2b1C1N","standard","1","48","LP","19.8235243429556","447.083","466.913","467.695","20.612","0.782","3","42","12779"
"49","R_3fCxGH0pr2b1C1N","standard","1","49","LP","5.5010771219302","468.7","474.212","NA","6.513","NA","0","42",""
"50","R_3fCxGH0pr2b1C1N","standard","1","50","LP","2.15079707022835","476.227","478.381","NA","3.168","NA","0","42",""
"51","R_3fCxGH0pr2b1C1N","standard","1","51","LP","19.8235243429556","480.397","500.229","NA","20.84","NA","0","42",""
"52","R_3fCxGH0pr2b1C1N","standard","1","52","LP","0.264713485566566","502.244","502.509","NA","1.284","NA","0","42",""
"53","R_3fCxGH0pr2b1C1N","standard","1","53","LP","19.8235243429556","504.529","524.357","NA","20.851","NA","0","42",""
"54","R_3fCxGH0pr2b1C1N","standard","1","54","LP","1.25738905644119","526.381","527.639","NA","2.263","NA","0","42",""
"55","R_3fCxGH0pr2b1C1N","standard","1","55","LP","19.8235243429556","529.644","549.477","NA","20.849","NA","0","42",""
"56","R_3fCxGH0pr2b1C1N","standard","1","56","LP","3.49090909090909","551.499","554.995","NA","4.512","NA","0","42",""
"57","R_3fCxGH0pr2b1C1N","standard","1","57","LP","3.49090909090909","557.011","560.508","NA","4.502","NA","0","42",""
"58","R_3fCxGH0pr2b1C1N","standard","1","58","LP","0.264713485566566","562.516","562.794","NA","1.28","NA","0","42",""
"59","R_3fCxGH0pr2b1C1N","standard","1","59","LP","19.8235243429556","564.803","584.637","NA","20.841","NA","0","42",""
"60","R_3fCxGH0pr2b1C1N","standard","1","60","LP","5.5010771219302","586.652","592.157","NA","6.514","NA","0","42",""
"61","R_3fCxGH0pr2b1C1N","standard","1","61","LP","1.25738905644119","594.173","595.437","NA","2.273","NA","0","42",""
"62","R_3fCxGH0pr2b1C1N","standard","1","62","LP","1.25738905644119","597.459","598.728","NA","2.274","NA","0","42",""
"63","R_3fCxGH0pr2b1C1N","standard","1","63","LP","19.8235243429556","600.741","620.574","621.434","20.693","0.86","3","45",""
"64","R_3fCxGH0pr2b1C1N","standard","1","64","LP","19.8235243429556","622.436","642.273","NA","20.863","NA","0","45",""
"65","R_3fCxGH0pr2b1C1N","standard","1","65","LP","0.661783713916415","644.305","644.972","NA","1.678","NA","0","45",""
"66","R_3fCxGH0pr2b1C1N","standard","1","66","LP","19.8235243429556","646.99","666.82","NA","20.858","NA","0","45",""
"67","R_3fCxGH0pr2b1C1N","standard","1","67","LP","13.0392072382594","668.856","681.903","NA","14.062","NA","0","45",""
"68","R_3fCxGH0pr2b1C1N","standard","1","68","LP","0.661783713916415","683.923","684.595","NA","1.681","NA","0","45",""
"69","R_3fCxGH0pr2b1C1N","standard","1","69","LP","1.25738905644119","686.605","687.871","NA","2.284","NA","0","45",""
"70","R_3fCxGH0pr2b1C1N","standard","1","70","LP","8.51632916846187","689.902","698.42","699.409","9.507","0.989","3","48",""
"71","R_3fCxGH0pr2b1C1N","standard","1","71","LP","5.5010771219302","700.413","705.917","706.749","6.336","0.832","3","51",""
"72","R_3fCxGH0pr2b1C1N","standard","1","72","LP","0.264713485566566","707.756","708.034","NA","1.281","NA","0","51",""
"73","R_3fCxGH0pr2b1C1N","standard","1","73","LP","13.0392072382594","710.046","723.101","723.94","13.894","0.839","3","54",""
"74","R_3fCxGH0pr2b1C1N","standard","1","74","LP","0.264713485566566","724.94","725.21","726.178","1.238","0.968","3","57",""
"75","R_3fCxGH0pr2b1C1N","standard","1","75","LP","3.49090909090909","727.181","730.672","731.446","4.265","0.774","3","60",""
"76","R_3fCxGH0pr2b1C1N","standard","1","76","LP","0.661783713916415","732.452","733.118","733.983","1.531","0.865","3","63",""
"77","R_3fCxGH0pr2b1C1N","standard","1","77","LP","0.661783713916415","734.989","735.653","736.441","1.452","0.788","3","66",""
"78","R_3fCxGH0pr2b1C1N","standard","1","78","LP","0.264713485566566","737.445","737.71","738.502","1.057","0.792","3","69",""
"79","R_3fCxGH0pr2b1C1N","standard","1","79","LP","19.8235243429556","739.509","759.336","NA","20.833","NA","0","69",""
"80","R_3fCxGH0pr2b1C1N","standard","1","80","LP","13.0392072382594","761.349","774.4","NA","14.056","NA","0","69",""
"81","R_3fCxGH0pr2b1C1N","standard","1","81","LP","0.661783713916415","776.405","777.069","NA","1.672","NA","0","69",""
"82","R_3fCxGH0pr2b1C1N","standard","1","82","LP","1.25738905644119","779.1","780.364","NA","2.266","NA","0","69",""
"83","R_3fCxGH0pr2b1C1N","standard","1","83","LP","8.51632916846187","782.387","790.908","NA","9.522","NA","0","69",""
"84","R_3fCxGH0pr2b1C1N","standard","1","84","LP","3.49090909090909","792.916","796.407","NA","4.492","NA","0","69",""
"85","R_3fCxGH0pr2b1C1N","standard","1","85","LP","3.49090909090909","798.419","801.912","NA","4.496","NA","0","69",""
"86","R_3fCxGH0pr2b1C1N","standard","1","86","LP","2.15079707022835","803.917","806.083","NA","3.18","NA","0","69",""
"87","R_3fCxGH0pr2b1C1N","standard","1","87","LP","19.8235243429556","808.109","827.933","NA","20.825","NA","0","69",""
"88","R_3fCxGH0pr2b1C1N","standard","1","88","LP","0.264713485566566","829.966","830.28","NA","1.332","NA","0","69",""
"89","R_3fCxGH0pr2b1C1N","standard","1","89","LP","13.0392072382594","832.313","845.357","NA","14.052","NA","0","69",""
"90","R_3fCxGH0pr2b1C1N","standard","1","90","LP","30","847.372","877.372","NA","31.013","NA","0","69",""
"91","R_3fCxGH0pr2b1C1N","standard","2","1","LP","1.25738905644119","0.001","NaN","1.097","1.096","NaN","0","69",NA
"92","R_3fCxGH0pr2b1C1N","standard","2","2","LP","5.5010771219302","2.098","NaN","3.351","1.253","NaN","0","69",NA
"93","R_3fCxGH0pr2b1C1N","standard","2","3","LP","13.0392072382594","4.353","NaN","5.391","1.038","NaN","0","69",NA
"94","R_3fCxGH0pr2b1C1N","standard","2","4","LP","19.8235243429556","6.392","NaN","7.166","0.774","NaN","0","69",NA
"95","R_3fCxGH0pr2b1C1N","standard","2","5","LP","0.264713485566566","8.181","8.448","8.861","0.68","0.413","3","72",NA
"96","R_3fCxGH0pr2b1C1N","standard","2","6","LP","0.661783713916415","9.865","NaN","10.469","0.604","NaN","0","72",NA
"97","R_3fCxGH0pr2b1C1N","standard","2","7","LP","5.5010771219302","11.511","17.018",NA,"6.514",NA,"0","72",NA
"98","R_3fCxGH0pr2b1C1N","standard","2","8","LP","3.49090909090909","19.032","22.586",NA,"4.561",NA,"0","72",NA
"99","R_3fCxGH0pr2b1C1N","standard","2","9","LP","5.5010771219302","25.584","31.598",NA,"7.031",NA,"0","72",NA
"100","R_3fCxGH0pr2b1C1N","standard","2","10","LP","0.264713485566566","33.616","33.88",NA,"1.265",NA,"0","72",NA
"101","R_3fCxGH0pr2b1C1N","standard","2","11","LP","5.5010771219302","35.896","41.413","41.75","5.854","0.337","3","75",NA
"102","R_3fCxGH0pr2b1C1N","standard","2","12","LP","0.661783713916415","42.762","43.424","44.37","1.608","0.946","3","78",NA
"103","R_3fCxGH0pr2b1C1N","standard","2","13","LP","8.51632916846187","45.384","NaN","46.462","1.078","NaN","0","78",NA
"104","R_3fCxGH0pr2b1C1N","standard","2","14","LP","30","47.478","NaN","51.735","4.257","NaN","0","78",NA
"105","R_3fCxGH0pr2b1C1N","standard","2","15","LP","1.25738905644119","52.739","54.006","54.988","2.249","0.982","3","81",NA
"106","R_3fCxGH0pr2b1C1N","standard","2","16","LP","5.5010771219302","56.115","61.625","62.314","6.199","0.689","3","84",NA
"107","R_3fCxGH0pr2b1C1N","standard","2","17","LP","0.264713485566566","63.314","63.599",NA,"1.295",NA,"0","84",NA
"108","R_3fCxGH0pr2b1C1N","standard","2","18","LP","3.49090909090909","65.641","69.136","69.781","4.14","0.645","3","87",NA
"109","R_3fCxGH0pr2b1C1N","standard","2","19","LP","5.5010771219302","70.784","76.309",NA,"6.528",NA,"0","87",NA
"110","R_3fCxGH0pr2b1C1N","standard","2","20","LP","2.15079707022835","78.312","80.465","81.322","3.01","0.857","3","90",NA
"111","R_3fCxGH0pr2b1C1N","standard","2","21","LP","30","82.331","NaN","88.805","6.474","NaN","0","90",NA
"112","R_3fCxGH0pr2b1C1N","standard","2","22","LP","19.8235243429556","89.815","NaN","90.746","0.931","NaN","0","90",NA
"113","R_3fCxGH0pr2b1C1N","standard","2","23","LP","1.25738905644119","91.753","NaN","92.008","0.255","NaN","0","90",NA
"114","R_3fCxGH0pr2b1C1N","standard","2","24","LP","30","93.022","NaN","112.798","19.776","NaN","0","90",NA
"115","R_3fCxGH0pr2b1C1N","standard","2","25","LP","13.0392072382594","113.808","NaN","114.76","0.952","NaN","0","90",NA
"116","R_3fCxGH0pr2b1C1N","standard","2","26","LP","0.661783713916415","115.777","116.446","116.676","0.899","0.23","3","93",NA
"117","R_3fCxGH0pr2b1C1N","standard","2","27","LP","5.5010771219302","117.692","NaN","121.849","4.157","NaN","0","93",NA
"118","R_3fCxGH0pr2b1C1N","standard","2","28","LP","1.25738905644119","122.856","124.12","124.891","2.035","0.771","3","96",NA
"119","R_3fCxGH0pr2b1C1N","standard","2","29","LP","2.15079707022835","125.906","128.059","128.898","2.992","0.839","3","99",NA
"120","R_3fCxGH0pr2b1C1N","standard","2","30","LP","1.25738905644119","129.907","131.168","131.92","2.013","0.752","3","102",NA
"121","R_3fCxGH0pr2b1C1N","standard","2","31","LP","13.0392072382594","132.923","145.968",NA,"14.052",NA,"0","102",NA
"122","R_3fCxGH0pr2b1C1N","standard","2","32","LP","0.264713485566566","147.975","148.239",NA,"1.265",NA,"0","102",NA
"123","R_3fCxGH0pr2b1C1N","standard","2","33","LP","19.8235243429556","150.242","170.072",NA,"20.837",NA,"0","102",NA
"124","R_3fCxGH0pr2b1C1N","standard","2","34","LP","0.661783713916415","172.08","172.743",NA,"1.663",NA,"0","102",NA
"125","R_3fCxGH0pr2b1C1N","standard","2","35","LP","30","174.751","204.772","205.671","30.92","0.899","3","105",NA
"126","R_3fCxGH0pr2b1C1N","standard","2","36","LP","3.49090909090909","206.672","210.175",NA,"4.61",NA,"0","105",NA
"127","R_3fCxGH0pr2b1C1N","standard","2","37","LP","13.0392072382594","212.297","NaN","222.741","10.444","NaN","0","105",NA
"128","R_3fCxGH0pr2b1C1N","standard","2","38","LP","5.5010771219302","223.744","229.249",NA,"6.512",NA,"0","105",NA
"129","R_3fCxGH0pr2b1C1N","standard","2","39","LP","3.49090909090909","231.257","234.803",NA,"4.56",NA,"0","105",NA
"130","R_3fCxGH0pr2b1C1N","standard","2","40","LP","2.15079707022835","236.825","239.002",NA,"3.194",NA,"0","105",NA
"131","R_3fCxGH0pr2b1C1N","standard","2","41","LP","3.49090909090909","241.045","244.537",NA,"4.499",NA,"0","105",NA
"132","R_3fCxGH0pr2b1C1N","standard","2","42","LP","1.25738905644119","246.545","247.809",NA,"2.274",NA,"0","105",NA
"133","R_3fCxGH0pr2b1C1N","standard","2","43","LP","0.661783713916415","249.871","250.536",NA,"1.666",NA,"0","105",NA
"134","R_3fCxGH0pr2b1C1N","standard","2","44","LP","3.49090909090909","252.537","256.032",NA,"4.496",NA,"0","105",NA
"135","R_3fCxGH0pr2b1C1N","standard","2","45","LP","8.51632916846187","258.041","266.56",NA,"9.519",NA,"0","105",NA
"136","R_3fCxGH0pr2b1C1N","standard","2","46","LP","8.51632916846187","268.569","277.089",NA,"9.527",NA,"0","105",NA
"137","R_3fCxGH0pr2b1C1N","standard","2","47","LP","13.0392072382594","279.099","292.144",NA,"14.045",NA,"0","105",NA
"138","R_3fCxGH0pr2b1C1N","standard","2","48","LP","13.0392072382594","294.144","307.185",NA,"14.05",NA,"0","105",NA
"139","R_3fCxGH0pr2b1C1N","standard","2","49","LP","19.8235243429556","309.202","329.071",NA,"20.882",NA,"0","105",NA
"140","R_3fCxGH0pr2b1C1N","standard","2","50","LP","0.661783713916415","331.088","331.752",NA,"1.664",NA,"0","105",NA
"141","R_3fCxGH0pr2b1C1N","standard","2","51","LP","8.51632916846187","333.753","342.273",NA,"9.533",NA,"0","105",NA
"142","R_3fCxGH0pr2b1C1N","standard","2","52","LP","0.661783713916415","344.301","344.968",NA,"1.683",NA,"0","105",NA
"143","R_3fCxGH0pr2b1C1N","standard","2","53","LP","0.264713485566566","346.999","347.267",NA,"1.284",NA,"0","105",NA
"144","R_3fCxGH0pr2b1C1N","standard","2","54","LP","3.49090909090909","349.33","352.833",NA,"4.508",NA,"0","105",NA
"145","R_3fCxGH0pr2b1C1N","standard","2","55","LP","13.0392072382594","354.841","367.883",NA,"14.049",NA,"0","105",NA
"146","R_3fCxGH0pr2b1C1N","standard","2","56","LP","13.0392072382594","369.898","382.945","383.845","13.947","0.9","3","108",NA
"147","R_3fCxGH0pr2b1C1N","standard","2","57","LP","2.15079707022835","384.849","387.584",NA,"3.738",NA,"0","108",NA
"148","R_3fCxGH0pr2b1C1N","standard","2","58","LP","1.25738905644119","389.593","390.866",NA,"2.524",NA,"0","108",NA
"149","R_3fCxGH0pr2b1C1N","standard","2","59","LP","19.8235243429556","393.126","NaN","411.565","18.439","NaN","0","108",NA
"150","R_3fCxGH0pr2b1C1N","standard","2","60","LP","8.51632916846187","412.581","421.114","421.897","9.316","0.783","3","111",NA
"151","R_3fCxGH0pr2b1C1N","standard","2","61","LP","2.15079707022835","422.905","425.057",NA,"3.159",NA,"0","111",NA
"152","R_3fCxGH0pr2b1C1N","standard","2","62","LP","3.49090909090909","427.08","430.58",NA,"4.504",NA,"0","111",NA
"153","R_3fCxGH0pr2b1C1N","standard","2","63","LP","2.15079707022835","432.596","434.752",NA,"3.157",NA,"0","111",NA
"154","R_3fCxGH0pr2b1C1N","standard","2","64","LP","19.8235243429556","436.76","456.599",NA,"20.841",NA,"0","111",NA
"155","R_3fCxGH0pr2b1C1N","standard","2","65","LP","5.5010771219302","458.614","464.586",NA,"6.975",NA,"0","111",NA
"156","R_3fCxGH0pr2b1C1N","standard","2","66","LP","5.5010771219302","466.593","472.096",NA,"6.518",NA,"0","111",NA
"157","R_3fCxGH0pr2b1C1N","standard","2","67","LP","1.25738905644119","474.111","475.382","476.117","2.006","0.735","3","114",NA
"158","R_3fCxGH0pr2b1C1N","standard","2","68","LP","3.49090909090909","477.133","480.624","481.283","4.15","0.659","3","117",NA
"159","R_3fCxGH0pr2b1C1N","standard","2","69","LP","2.15079707022835","482.294","484.449",NA,"3.163",NA,"0","117",NA
"160","R_3fCxGH0pr2b1C1N","standard","2","70","LP","5.5010771219302","486.477","491.993","492.91","6.433","0.917","3","120",NA
"161","R_3fCxGH0pr2b1C1N","standard","2","71","LP","2.15079707022835","493.912","496.078",NA,"3.183",NA,"0","120",NA
"162","R_3fCxGH0pr2b1C1N","standard","2","72","LP","0.661783713916415","498.097","498.76","499.501","1.404","0.741","3","123",NA
"163","R_3fCxGH0pr2b1C1N","standard","2","73","LP","5.5010771219302","500.506","506.008","506.668","6.162","0.66","3","126",NA
"164","R_3fCxGH0pr2b1C1N","standard","2","74","LP","2.15079707022835","507.672","509.825","510.618","2.946","0.793","3","129",NA
"165","R_3fCxGH0pr2b1C1N","standard","2","75","LP","19.8235243429556","511.625","531.448",NA,"20.834",NA,"0","129",NA
"166","R_3fCxGH0pr2b1C1N","standard","2","76","LP","13.0392072382594","533.464","546.505","547.273","13.809","0.768","3","132",NA
"167","R_3fCxGH0pr2b1C1N","standard","2","77","LP","0.264713485566566","548.293","548.561","549.413","1.12","0.852","3","135",NA
"168","R_3fCxGH0pr2b1C1N","standard","2","78","LP","30","550.447","580.591",NA,"31.145",NA,"0","135",NA
"169","R_3fCxGH0pr2b1C1N","standard","2","79","LP","0.264713485566566","582.606","582.872","583.574","0.968","0.702","3","138",NA
"170","R_3fCxGH0pr2b1C1N","standard","2","80","LP","0.264713485566566","584.59","584.856","585.557","0.967","0.701","3","141",NA
"171","R_3fCxGH0pr2b1C1N","standard","2","81","LP","5.5010771219302","586.574","592.09","592.822","6.248","0.732","3","144",NA
"172","R_3fCxGH0pr2b1C1N","standard","2","82","LP","1.25738905644119","593.825","595.174",NA,"2.362",NA,"0","144",NA
