"","subject_id","condition","n_block","n_trialIdx","f_timing_condition","n_scheduled_delay","n_trial_start_time","n_rewarded_time_fin","n_sell_time_fin","n_time_waited_fin","RT_fin","n_trial_earnings_fin","n_total_earnings_fin","keypress_times"
"1","R_3g65q0VJjXmjC7R","standard","1","1","HP","20","0.001","20.007","20.373","20.372","0.366","3","3",""
"2","R_3g65q0VJjXmjC7R","standard","1","2","HP","14","21.375","35.381","35.734","14.359","0.353","3","6",""
"3","R_3g65q0VJjXmjC7R","standard","1","3","HP","10","36.738","46.741","47.142","10.404","0.401","3","9",""
"4","R_3g65q0VJjXmjC7R","standard","1","4","HP","4","48.144","52.148","52.599","4.455","0.451","3","12",""
"5","R_3g65q0VJjXmjC7R","standard","1","5","HP","20","53.6","73.606","73.989","20.389","0.383","3","15",""
"6","R_3g65q0VJjXmjC7R","standard","1","6","HP","8","74.991","82.996","83.388","8.397","0.392","3","18",""
"7","R_3g65q0VJjXmjC7R","standard","1","7","HP","4","84.39","88.394","88.801","4.411","0.407","3","21",""
"8","R_3g65q0VJjXmjC7R","standard","1","8","HP","14","89.804","103.808","104.23","14.426","0.422","3","24",""
"9","R_3g65q0VJjXmjC7R","standard","1","9","HP","2","105.232","107.237","107.675","2.443","0.438","3","27",""
"10","R_3g65q0VJjXmjC7R","standard","1","10","HP","6","108.677","114.682","115.069","6.392","0.387","3","30",""
"11","R_3g65q0VJjXmjC7R","standard","1","11","HP","12","116.072","128.075","128.486","12.414","0.411","3","33",""
"12","R_3g65q0VJjXmjC7R","standard","1","12","HP","12","129.488","141.493","141.932","12.444","0.439","3","36",""
"13","R_3g65q0VJjXmjC7R","standard","1","13","HP","2","142.936","144.939","145.413","2.477","0.474","3","39",""
"14","R_3g65q0VJjXmjC7R","standard","1","14","HP","18","146.414","164.415","164.773","18.359","0.358","3","42",""
"15","R_3g65q0VJjXmjC7R","standard","1","15","HP","12","165.777","177.782","178.122","12.345","0.34","3","45",""
"16","R_3g65q0VJjXmjC7R","standard","1","16","HP","12","179.123","191.125","191.552","12.429","0.427","3","48",""
"17","R_3g65q0VJjXmjC7R","standard","1","17","HP","14","192.556","206.56","206.949","14.393","0.389","3","51",""
"18","R_3g65q0VJjXmjC7R","standard","1","18","HP","10","207.951","217.957","218.323","10.372","0.366","3","54",""
"19","R_3g65q0VJjXmjC7R","standard","1","19","HP","16","219.326","235.328","235.703","16.377","0.375","3","57",""
"20","R_3g65q0VJjXmjC7R","standard","1","20","HP","20","236.704","256.71","257.08","20.376","0.37","3","60",""
"21","R_3g65q0VJjXmjC7R","standard","1","21","HP","6","258.082","264.087","264.526","6.444","0.439","3","63",""
"22","R_3g65q0VJjXmjC7R","standard","1","22","HP","20","265.53","285.535","285.947","20.417","0.412","3","66",""
"23","R_3g65q0VJjXmjC7R","standard","1","23","HP","12","286.951","298.957","299.394","12.443","0.437","3","69",""
"24","R_3g65q0VJjXmjC7R","standard","1","24","HP","8","300.396","308.397","308.818","8.422","0.421","3","72",""
"25","R_3g65q0VJjXmjC7R","standard","1","25","HP","20","309.819","329.821","330.225","20.406","0.404","3","75",""
"26","R_3g65q0VJjXmjC7R","standard","1","26","HP","4","331.228","335.228","335.723","4.495","0.495","3","78",""
"27","R_3g65q0VJjXmjC7R","standard","1","27","HP","8","336.725","344.727","345.144","8.419","0.417","3","81",""
"28","R_3g65q0VJjXmjC7R","standard","1","28","HP","14","346.146","360.152","360.56","14.414","0.408","3","84",""
"29","R_3g65q0VJjXmjC7R","standard","1","29","HP","12","361.563","373.572","374.112","12.549","0.54","3","87",""
"30","R_3g65q0VJjXmjC7R","standard","1","30","HP","18","375.114","393.117","393.567","18.453","0.45","3","90",""
"31","R_3g65q0VJjXmjC7R","standard","1","31","HP","10","394.57","404.576","405.008","10.438","0.432","3","93",""
"32","R_3g65q0VJjXmjC7R","standard","1","32","HP","14","406.011","420.017","420.464","14.453","0.447","3","96",""
"33","R_3g65q0VJjXmjC7R","standard","1","33","HP","6","421.469","427.47","427.95","6.481","0.48","3","99",""
"34","R_3g65q0VJjXmjC7R","standard","1","34","HP","8","428.955","436.961","437.38","8.425","0.419","3","102",""
"35","R_3g65q0VJjXmjC7R","standard","1","35","HP","12","438.381","450.387","450.856","12.475","0.469","3","105",""
"36","R_3g65q0VJjXmjC7R","standard","1","36","HP","4","451.858","455.86","456.317","4.459","0.457","3","108",""
"37","R_3g65q0VJjXmjC7R","standard","1","37","HP","6","457.319","463.319","463.818","6.499","0.499","3","111",""
"38","R_3g65q0VJjXmjC7R","standard","1","38","HP","16","464.821","480.822","481.213","16.392","0.391","3","114",""
"39","R_3g65q0VJjXmjC7R","standard","1","39","HP","10","482.215","492.22","492.628","10.413","0.408","3","117",""
"40","R_3g65q0VJjXmjC7R","standard","1","40","HP","12","493.629","505.632","506.012","12.383","0.38","3","120",""
"41","R_3g65q0VJjXmjC7R","standard","1","41","HP","2","507.013","509.017","509.451","2.438","0.434","3","123",""
"42","R_3g65q0VJjXmjC7R","standard","1","42","HP","20","510.452","530.456","530.862","20.41","0.406","3","126",""
"43","R_3g65q0VJjXmjC7R","standard","1","43","HP","8","531.866","539.87","540.318","8.452","0.448","3","129",""
"44","R_3g65q0VJjXmjC7R","standard","1","44","HP","2","541.32","543.321","543.862","2.542","0.541","3","132",""
"45","R_3g65q0VJjXmjC7R","standard","1","45","HP","20","544.865","564.868","565.323","20.458","0.455","3","135",""
"46","R_3g65q0VJjXmjC7R","standard","1","46","HP","2","566.323","568.325","568.85","2.527","0.525","3","138",""
"47","R_3g65q0VJjXmjC7R","standard","1","47","HP","16","569.854","585.859","586.322","16.468","0.463","3","141",""
"48","R_3g65q0VJjXmjC7R","standard","1","48","HP","16","587.323","603.323","603.755","16.432","0.432","3","144",""
"49","R_3g65q0VJjXmjC7R","standard","1","49","HP","16","604.758","620.762","621.142","16.384","0.38","3","147",""
"50","R_3g65q0VJjXmjC7R","standard","1","50","HP","8","622.145","630.145","630.526","8.381","0.381","3","150",""
"51","R_3g65q0VJjXmjC7R","standard","1","51","HP","20","631.528","651.53","651.889","20.361","0.359","3","153",""
"52","R_3g65q0VJjXmjC7R","standard","1","52","HP","2","652.891","654.892","655.386","2.495","0.494","3","156",""
"53","R_3g65q0VJjXmjC7R","standard","1","53","HP","2","656.388","658.392","658.849","2.461","0.457","3","159",""
"54","R_3g65q0VJjXmjC7R","standard","1","54","HP","14","659.852","673.856","674.312","14.46","0.456","3","162",""
"55","R_3g65q0VJjXmjC7R","standard","1","55","HP","4","675.313","679.315","679.717","4.404","0.402","3","165",""
"56","R_3g65q0VJjXmjC7R","standard","1","56","HP","4","680.722","684.725","685.387","4.665","0.662","3","165","679"
"57","R_3g65q0VJjXmjC7R","standard","1","57","HP","10","686.39","696.396","696.867","10.477","0.471","3","168",""
"58","R_3g65q0VJjXmjC7R","standard","1","58","HP","10","697.872","707.877","708.281","10.409","0.404","3","171",""
"59","R_3g65q0VJjXmjC7R","standard","1","59","HP","14","709.283","723.286","723.702","14.419","0.416","3","174",""
"60","R_3g65q0VJjXmjC7R","standard","1","60","HP","6","724.707","730.708","731.228","6.521","0.52","3","177",""
"61","R_3g65q0VJjXmjC7R","standard","1","61","HP","6","732.229","738.23","738.673","6.444","0.443","3","180",""
"62","R_3g65q0VJjXmjC7R","standard","1","62","HP","2","739.675","741.677","742.144","2.469","0.467","3","183",""
"63","R_3g65q0VJjXmjC7R","standard","1","63","HP","14","743.146","757.151","757.581","14.435","0.43","3","186",""
"64","R_3g65q0VJjXmjC7R","standard","1","64","HP","4","758.586","762.587","762.978","4.392","0.391","3","189",""
"65","R_3g65q0VJjXmjC7R","standard","1","65","HP","10","763.98","773.985","774.433","10.453","0.448","3","192",""
"66","R_3g65q0VJjXmjC7R","standard","1","66","HP","8","775.434","783.435","783.795","8.361","0.36","3","195",""
"67","R_3g65q0VJjXmjC7R","standard","1","67","HP","18","784.798","802.804","803.208","18.41","0.404","3","198",""
"68","R_3g65q0VJjXmjC7R","standard","1","68","HP","16","804.21","820.216","820.599","16.389","0.383","3","201",""
"69","R_3g65q0VJjXmjC7R","standard","1","69","HP","2","821.602","823.607","824.079","2.477","0.472","3","204",""
"70","R_3g65q0VJjXmjC7R","standard","1","70","HP","14","825.081","839.083","839.548","14.467","0.465","3","207",""
"71","R_3g65q0VJjXmjC7R","standard","1","71","HP","2","840.55","842.553","843.074","2.524","0.521","3","210",""
"72","R_3g65q0VJjXmjC7R","standard","1","72","HP","20","844.076","864.08","864.574","20.498","0.494","3","213",""
"73","R_3g65q0VJjXmjC7R","standard","1","73","HP","2","865.577","867.578","868.064","2.487","0.486","3","216",""
"74","R_3g65q0VJjXmjC7R","standard","1","74","HP","4","869.067","873.07","873.487","4.42","0.417","3","219",""
"75","R_3g65q0VJjXmjC7R","standard","1","75","HP","14","874.488","888.494","888.907","14.419","0.413","3","222",""
"76","R_3g65q0VJjXmjC7R","standard","1","76","HP","4","889.911","893.916","894.272","4.361","0.356","3","225",""
"77","R_3g65q0VJjXmjC7R","standard","2","1","LP","0.264713485566566","0.001","0.267","1.009","1.008","0.742","3","228",NA
"78","R_3g65q0VJjXmjC7R","standard","2","2","LP","19.8235243429556","2.009","NaN","18.73","16.721","NaN","0","228",NA
"79","R_3g65q0VJjXmjC7R","standard","2","3","LP","2.15079707022835","19.733","21.888","22.315","2.582","0.427","3","231",NA
"80","R_3g65q0VJjXmjC7R","standard","2","4","LP","3.49090909090909","23.318","26.808","27.267","3.949","0.459","3","234",NA
"81","R_3g65q0VJjXmjC7R","standard","2","5","LP","30","28.268","NaN","41.299","13.031","NaN","0","234",NA
"82","R_3g65q0VJjXmjC7R","standard","2","6","LP","0.661783713916415","42.301","42.966","43.45","1.149","0.484","3","237",NA
"83","R_3g65q0VJjXmjC7R","standard","2","7","LP","0.661783713916415","44.452","45.115","45.604","1.152","0.489","3","240",NA
"84","R_3g65q0VJjXmjC7R","standard","2","8","LP","1.25738905644119","46.605","47.868","48.251","1.646","0.383","3","243",NA
"85","R_3g65q0VJjXmjC7R","standard","2","9","LP","30","49.253","NaN","54.265","5.012","NaN","0","243",NA
"86","R_3g65q0VJjXmjC7R","standard","2","10","LP","19.8235243429556","55.265","NaN","62.682","7.417","NaN","0","243",NA
"87","R_3g65q0VJjXmjC7R","standard","2","11","LP","30","63.684","NaN","71.404","7.72","NaN","0","243",NA
"88","R_3g65q0VJjXmjC7R","standard","2","12","LP","3.49090909090909","72.406","75.896","76.356","3.95","0.46","3","246",NA
"89","R_3g65q0VJjXmjC7R","standard","2","13","LP","1.25738905644119","77.357","78.617","79.05","1.693","0.433","3","249",NA
"90","R_3g65q0VJjXmjC7R","standard","2","14","LP","2.15079707022835","80.056","82.208","82.606","2.55","0.398","3","252",NA
"91","R_3g65q0VJjXmjC7R","standard","2","15","LP","1.25738905644119","83.608","84.87","85.255","1.647","0.385","3","255",NA
"92","R_3g65q0VJjXmjC7R","standard","2","16","LP","5.5010771219302","86.257","91.758","91.855","5.598","0.097","3","258",NA
"93","R_3g65q0VJjXmjC7R","standard","2","17","LP","19.8235243429556","92.856","NaN","101.176","8.32","NaN","0","258",NA
"94","R_3g65q0VJjXmjC7R","standard","2","18","LP","0.264713485566566","102.177","102.444","102.859","0.682","0.415","3","261",NA
"95","R_3g65q0VJjXmjC7R","standard","2","19","LP","3.49090909090909","103.862","107.358","107.837","3.975","0.479","3","264",NA
"96","R_3g65q0VJjXmjC7R","standard","2","20","LP","0.264713485566566","108.838","109.108","109.598","0.76","0.49","3","267",NA
"97","R_3g65q0VJjXmjC7R","standard","2","21","LP","19.8235243429556","110.599","NaN","117.771","7.172","NaN","0","267",NA
"98","R_3g65q0VJjXmjC7R","standard","2","22","LP","0.264713485566566","118.773","119.041","119.462","0.689","0.421","3","270",NA
"99","R_3g65q0VJjXmjC7R","standard","2","23","LP","1.25738905644119","120.464","121.725","122.255","1.791","0.53","3","273",NA
"100","R_3g65q0VJjXmjC7R","standard","2","24","LP","2.15079707022835","123.257","125.408","125.825","2.568","0.417","3","276",NA
"101","R_3g65q0VJjXmjC7R","standard","2","25","LP","3.49090909090909","126.826","130.318","130.713","3.887","0.395","3","279",NA
"102","R_3g65q0VJjXmjC7R","standard","2","26","LP","13.0392072382594","131.713","144.755","145.11","13.397","0.355","3","282",NA
"103","R_3g65q0VJjXmjC7R","standard","2","27","LP","5.5010771219302","146.111","151.612","152.046","5.935","0.434","3","285",NA
"104","R_3g65q0VJjXmjC7R","standard","2","28","LP","0.264713485566566","153.048","153.314","153.783","0.735","0.469","3","288",NA
"105","R_3g65q0VJjXmjC7R","standard","2","29","LP","1.25738905644119","154.786","156.044","156.491","1.705","0.447","3","291",NA
"106","R_3g65q0VJjXmjC7R","standard","2","30","LP","3.49090909090909","157.493","160.984","161.412","3.919","0.428","3","294",NA
"107","R_3g65q0VJjXmjC7R","standard","2","31","LP","2.15079707022835","162.413","164.568","165.03","2.617","0.462","3","297",NA
"108","R_3g65q0VJjXmjC7R","standard","2","32","LP","0.661783713916415","166.032","166.698","167.233","1.201","0.535","3","300",NA
"109","R_3g65q0VJjXmjC7R","standard","2","33","LP","8.51632916846187","168.235","176.756","176.937","8.702","0.181","3","303",NA
"110","R_3g65q0VJjXmjC7R","standard","2","34","LP","13.0392072382594","177.94","NaN","188.542","10.602","NaN","0","303",NA
"111","R_3g65q0VJjXmjC7R","standard","2","35","LP","19.8235243429556","189.546","NaN","200.81","11.264","NaN","0","303",NA
"112","R_3g65q0VJjXmjC7R","standard","2","36","LP","1.25738905644119","201.81","203.072","203.519","1.709","0.447","3","306",NA
"113","R_3g65q0VJjXmjC7R","standard","2","37","LP","0.264713485566566","204.521","204.788","205.199","0.678","0.411","3","309",NA
"114","R_3g65q0VJjXmjC7R","standard","2","38","LP","0.661783713916415","206.203","206.866","207.218","1.015","0.352","3","312",NA
"115","R_3g65q0VJjXmjC7R","standard","2","39","LP","0.661783713916415","208.219","208.885","209.316","1.097","0.431","3","315",NA
"116","R_3g65q0VJjXmjC7R","standard","2","40","LP","5.5010771219302","210.316","NaN","215.386","5.07","NaN","0","315",NA
"117","R_3g65q0VJjXmjC7R","standard","2","41","LP","2.15079707022835","216.387","218.538","218.939","2.552","0.401","3","318",NA
"118","R_3g65q0VJjXmjC7R","standard","2","42","LP","19.8235243429556","219.941","NaN","227.355","7.414","NaN","0","318",NA
"119","R_3g65q0VJjXmjC7R","standard","2","43","LP","8.51632916846187","228.36","236.877","237.232","8.872","0.355","3","321",NA
"120","R_3g65q0VJjXmjC7R","standard","2","44","LP","5.5010771219302","238.233","243.738","244.31","6.077","0.572","3","324",NA
"121","R_3g65q0VJjXmjC7R","standard","2","45","LP","3.49090909090909","245.31","248.805","249.323","4.013","0.518","3","327",NA
"122","R_3g65q0VJjXmjC7R","standard","2","46","LP","5.5010771219302","250.326","255.83","256.208","5.882","0.378","3","330",NA
"123","R_3g65q0VJjXmjC7R","standard","2","47","LP","1.25738905644119","257.21","258.473","258.911","1.701","0.438","3","333",NA
"124","R_3g65q0VJjXmjC7R","standard","2","48","LP","2.15079707022835","259.911","NaN","260.4","0.489","NaN","0","333",NA
"125","R_3g65q0VJjXmjC7R","standard","2","49","LP","5.5010771219302","261.401","266.905","267.361","5.96","0.456","3","336",NA
"126","R_3g65q0VJjXmjC7R","standard","2","50","LP","0.264713485566566","268.366","268.633","269.077","0.711","0.444","3","339",NA
"127","R_3g65q0VJjXmjC7R","standard","2","51","LP","30","270.08","NaN","276.484","6.404","NaN","0","339",NA
"128","R_3g65q0VJjXmjC7R","standard","2","52","LP","1.25738905644119","277.486","278.748","279.142","1.656","0.394","3","342",NA
"129","R_3g65q0VJjXmjC7R","standard","2","53","LP","8.51632916846187","280.146","NaN","288.493","8.347","NaN","0","342",NA
"130","R_3g65q0VJjXmjC7R","standard","2","54","LP","0.661783713916415","289.495","290.161","290.541","1.046","0.38","3","345",NA
"131","R_3g65q0VJjXmjC7R","standard","2","55","LP","30","291.542","NaN","298.502","6.96","NaN","0","345",NA
"132","R_3g65q0VJjXmjC7R","standard","2","56","LP","30","299.504","NaN","304.116","4.612","NaN","0","345",NA
"133","R_3g65q0VJjXmjC7R","standard","2","57","LP","19.8235243429556","305.117","NaN","314.741","9.624","NaN","0","345",NA
"134","R_3g65q0VJjXmjC7R","standard","2","58","LP","2.15079707022835","315.746","317.899","318.3","2.554","0.401","3","348",NA
"135","R_3g65q0VJjXmjC7R","standard","2","59","LP","3.49090909090909","319.301","322.792","323.195","3.894","0.403","3","351",NA
"136","R_3g65q0VJjXmjC7R","standard","2","60","LP","13.0392072382594","324.197","NaN","336.279","12.082","NaN","0","351",NA
"137","R_3g65q0VJjXmjC7R","standard","2","61","LP","1.25738905644119","337.281","338.543","338.979","1.698","0.436","3","354",NA
"138","R_3g65q0VJjXmjC7R","standard","2","62","LP","0.264713485566566","339.981","340.251","340.727","0.746","0.476","3","357",NA
"139","R_3g65q0VJjXmjC7R","standard","2","63","LP","8.51632916846187","341.73","NaN","344.157","2.427","NaN","0","357",NA
"140","R_3g65q0VJjXmjC7R","standard","2","64","LP","19.8235243429556","345.158","NaN","348.722","3.564","NaN","0","357",NA
"141","R_3g65q0VJjXmjC7R","standard","2","65","LP","3.49090909090909","349.723","353.213","353.63","3.907","0.417","3","360",NA
"142","R_3g65q0VJjXmjC7R","standard","2","66","LP","13.0392072382594","354.633","NaN","361.253","6.62","NaN","0","360",NA
"143","R_3g65q0VJjXmjC7R","standard","2","67","LP","1.25738905644119","362.255","363.513","363.992","1.737","0.479","3","363",NA
"144","R_3g65q0VJjXmjC7R","standard","2","68","LP","2.15079707022835","364.995","367.149","367.618","2.623","0.469","3","366",NA
"145","R_3g65q0VJjXmjC7R","standard","2","69","LP","0.661783713916415","368.619","369.285","369.771","1.152","0.486","3","369",NA
"146","R_3g65q0VJjXmjC7R","standard","2","70","LP","0.661783713916415","370.772","371.435","371.79","1.018","0.355","3","372",NA
"147","R_3g65q0VJjXmjC7R","standard","2","71","LP","1.25738905644119","372.791","374.051","374.507","1.716","0.456","3","375",NA
"148","R_3g65q0VJjXmjC7R","standard","2","72","LP","3.49090909090909","375.509","379.002","379.525","4.016","0.523","3","378",NA
"149","R_3g65q0VJjXmjC7R","standard","2","73","LP","13.0392072382594","380.527","NaN","387.759","7.232","NaN","0","378",NA
"150","R_3g65q0VJjXmjC7R","standard","2","74","LP","13.0392072382594","388.761","NaN","393.799","5.038","NaN","0","378",NA
"151","R_3g65q0VJjXmjC7R","standard","2","75","LP","3.49090909090909","394.801","398.296","398.812","4.011","0.516","3","381",NA
"152","R_3g65q0VJjXmjC7R","standard","2","76","LP","1.25738905644119","399.814","401.073","401.497","1.683","0.424","3","384",NA
"153","R_3g65q0VJjXmjC7R","standard","2","77","LP","13.0392072382594","402.498","NaN","409.853","7.355","NaN","0","384",NA
"154","R_3g65q0VJjXmjC7R","standard","2","78","LP","1.25738905644119","410.856","412.113","412.57","1.714","0.457","3","387",NA
"155","R_3g65q0VJjXmjC7R","standard","2","79","LP","0.661783713916415","413.572","414.237","414.726","1.154","0.489","3","390",NA
"156","R_3g65q0VJjXmjC7R","standard","2","80","LP","5.5010771219302","415.726","421.231","421.275","5.549","0.044","3","393",NA
"157","R_3g65q0VJjXmjC7R","standard","2","81","LP","2.15079707022835","422.276","424.429","425.096","2.82","0.667","3","396",NA
"158","R_3g65q0VJjXmjC7R","standard","2","82","LP","30","426.097","NaN","432.932","6.835","NaN","0","396",NA
"159","R_3g65q0VJjXmjC7R","standard","2","83","LP","3.49090909090909","433.933","437.426","437.929","3.996","0.503","3","399",NA
"160","R_3g65q0VJjXmjC7R","standard","2","84","LP","5.5010771219302","438.931","NaN","443.254","4.323","NaN","0","399",NA
"161","R_3g65q0VJjXmjC7R","standard","2","85","LP","30","444.258","NaN","456.501","12.243","NaN","0","399",NA
"162","R_3g65q0VJjXmjC7R","standard","2","86","LP","0.264713485566566","457.506","457.776","458.154","0.648","0.378","3","402",NA
"163","R_3g65q0VJjXmjC7R","standard","2","87","LP","2.15079707022835","459.159","461.313","461.684","2.525","0.371","3","405",NA
"164","R_3g65q0VJjXmjC7R","standard","2","88","LP","2.15079707022835","462.688","464.838","465.281","2.593","0.443","3","408",NA
"165","R_3g65q0VJjXmjC7R","standard","2","89","LP","30","466.286","NaN","474.312","8.026","NaN","0","408",NA
"166","R_3g65q0VJjXmjC7R","standard","2","90","LP","5.5010771219302","475.314","480.816","481.274","5.96","0.458","3","411",NA
"167","R_3g65q0VJjXmjC7R","standard","2","91","LP","3.49090909090909","482.276","485.768","486.205","3.929","0.437","3","414",NA
"168","R_3g65q0VJjXmjC7R","standard","2","92","LP","30","487.207","NaN","493.722","6.515","NaN","0","414",NA
"169","R_3g65q0VJjXmjC7R","standard","2","93","LP","2.15079707022835","494.723","496.876","497.248","2.525","0.372","3","417",NA
"170","R_3g65q0VJjXmjC7R","standard","2","94","LP","5.5010771219302","498.251","NaN","503.059","4.808","NaN","0","417",NA
"171","R_3g65q0VJjXmjC7R","standard","2","95","LP","1.25738905644119","504.061","505.318","505.769","1.708","0.451","3","420",NA
"172","R_3g65q0VJjXmjC7R","standard","2","96","LP","2.15079707022835","506.771","508.922","509.443","2.672","0.521","3","423",NA
"173","R_3g65q0VJjXmjC7R","standard","2","97","LP","8.51632916846187","510.445","NaN","517.949","7.504","NaN","0","423",NA
"174","R_3g65q0VJjXmjC7R","standard","2","98","LP","0.264713485566566","518.95","519.216","519.58","0.63","0.364","3","426",NA
"175","R_3g65q0VJjXmjC7R","standard","2","99","LP","0.661783713916415","520.582","521.247","521.703","1.121","0.456","3","429",NA
"176","R_3g65q0VJjXmjC7R","standard","2","100","LP","1.25738905644119","522.707","523.969","524.346","1.639","0.377","3","432",NA
"177","R_3g65q0VJjXmjC7R","standard","2","101","LP","3.49090909090909","525.347","NaN","527.786","2.439","NaN","0","432",NA
"178","R_3g65q0VJjXmjC7R","standard","2","102","LP","1.25738905644119","528.787","530.047","530.522","1.735","0.475","3","435",NA
"179","R_3g65q0VJjXmjC7R","standard","2","103","LP","2.15079707022835","531.524","533.679","534.116","2.592","0.437","3","438",NA
"180","R_3g65q0VJjXmjC7R","standard","2","104","LP","0.661783713916415","535.117","535.778","536.288","1.171","0.51","3","441",NA
"181","R_3g65q0VJjXmjC7R","standard","2","105","LP","3.49090909090909","537.289","NaN","540.409","3.12","NaN","0","441",NA
"182","R_3g65q0VJjXmjC7R","standard","2","106","LP","30","541.411","NaN","546.851","5.44","NaN","0","441",NA
"183","R_3g65q0VJjXmjC7R","standard","2","107","LP","2.15079707022835","547.854","550.01","550.439","2.585","0.429","3","444",NA
"184","R_3g65q0VJjXmjC7R","standard","2","108","LP","13.0392072382594","551.443","NaN","556.28","4.837","NaN","0","444",NA
"185","R_3g65q0VJjXmjC7R","standard","2","109","LP","0.264713485566566","557.284","557.548","557.931","0.647","0.383","3","447",NA
"186","R_3g65q0VJjXmjC7R","standard","2","110","LP","5.5010771219302","558.932","NaN","562.029","3.097","NaN","0","447",NA
"187","R_3g65q0VJjXmjC7R","standard","2","111","LP","2.15079707022835","563.03","565.186","565.575","2.545","0.389","3","450",NA
"188","R_3g65q0VJjXmjC7R","standard","2","112","LP","0.264713485566566","566.576","566.846","567.235","0.659","0.389","3","453",NA
"189","R_3g65q0VJjXmjC7R","standard","2","113","LP","30","568.238","NaN","570.852","2.614","NaN","0","453",NA
"190","R_3g65q0VJjXmjC7R","standard","2","114","LP","30","571.853","NaN","576.023","4.17","NaN","0","453",NA
"191","R_3g65q0VJjXmjC7R","standard","2","115","LP","13.0392072382594","577.024","NaN","580.643","3.619","NaN","0","453",NA
"192","R_3g65q0VJjXmjC7R","standard","2","116","LP","5.5010771219302","581.643","587.15","587.605","5.962","0.455","3","456",NA
"193","R_3g65q0VJjXmjC7R","standard","2","117","LP","19.8235243429556","588.607","NaN","593.927","5.32","NaN","0","456",NA
"194","R_3g65q0VJjXmjC7R","standard","2","118","LP","0.661783713916415","594.93","595.594","596.035","1.105","0.441","3","459",NA
