"","subject_id","condition","n_block","n_trialIdx","f_timing_condition","n_scheduled_delay","n_trial_start_time","n_rewarded_time_fin","n_sell_time_fin","n_time_waited_fin","RT_fin","n_trial_earnings_fin","n_total_earnings_fin","keypress_times"
"1","R_3I0QmhSkdAYPjxP","standard","1","1","LP","2.15079707022835","0.005","2.161","NA","3.165","NA","0","0",""
"2","R_3I0QmhSkdAYPjxP","standard","1","2","LP","13.0392072382594","4.183","17.227","NA","14.046","NA","0","0",""
"3","R_3I0QmhSkdAYPjxP","standard","1","3","LP","3.49090909090909","19.232","22.727","23.385","4.153","0.658","3","3",""
"4","R_3I0QmhSkdAYPjxP","standard","1","4","LP","1.25738905644119","24.392","25.651","26.389","1.997","0.738","3","6",""
"5","R_3I0QmhSkdAYPjxP","standard","1","5","LP","8.51632916846187","27.393","35.91","36.613","9.22","0.703","3","9",""
"6","R_3I0QmhSkdAYPjxP","standard","1","6","LP","3.49090909090909","37.642","41.136","41.84","4.198","0.704","3","12",""
"7","R_3I0QmhSkdAYPjxP","standard","1","7","LP","0.661783713916415","42.841","43.508","44.362","1.521","0.854","3","15",""
"8","R_3I0QmhSkdAYPjxP","standard","1","8","LP","30","45.369","75.376","76.071","30.702","0.695","3","18",""
"9","R_3I0QmhSkdAYPjxP","standard","1","9","LP","0.264713485566566","77.072","77.344","78.169","1.097","0.825","3","21",""
"10","R_3I0QmhSkdAYPjxP","standard","1","10","LP","0.264713485566566","79.176","79.442","NA","1.305","NA","0","21",""
"11","R_3I0QmhSkdAYPjxP","standard","1","11","LP","0.264713485566566","81.492","81.775","82.691","1.199","0.916","3","24",""
"12","R_3I0QmhSkdAYPjxP","standard","1","12","LP","30","83.705","113.711","114.421","30.716","0.71","3","27",""
"13","R_3I0QmhSkdAYPjxP","standard","1","13","LP","2.15079707022835","115.432","117.591","118.387","2.955","0.796","3","30",""
"14","R_3I0QmhSkdAYPjxP","standard","1","14","LP","5.5010771219302","119.404","124.914","125.777","6.373","0.863","3","33",""
"15","R_3I0QmhSkdAYPjxP","standard","1","15","LP","5.5010771219302","126.793","132.298","NA","6.521","NA","0","33",""
"16","R_3I0QmhSkdAYPjxP","standard","1","16","LP","8.51632916846187","134.324","142.849","143.476","9.152","0.627","3","33","40"
"17","R_3I0QmhSkdAYPjxP","standard","1","17","LP","13.0392072382594","144.49","157.536","158.225","13.735","0.689","3","36",""
"18","R_3I0QmhSkdAYPjxP","standard","1","18","LP","13.0392072382594","159.241","172.29","NA","14.063","NA","0","36",""
"19","R_3I0QmhSkdAYPjxP","standard","1","19","LP","8.51632916846187","174.407","182.928","183.602","9.195","0.674","3","39",""
"20","R_3I0QmhSkdAYPjxP","standard","1","20","LP","13.0392072382594","184.621","197.663","198.342","13.721","0.679","3","42",""
"21","R_3I0QmhSkdAYPjxP","standard","1","21","LP","1.25738905644119","199.343","200.608","201.292","1.949","0.684","3","45",""
"22","R_3I0QmhSkdAYPjxP","standard","1","22","LP","5.5010771219302","202.303","207.817","208.454","6.151","0.637","3","48",""
"23","R_3I0QmhSkdAYPjxP","standard","1","23","LP","5.5010771219302","209.465","214.975","215.604","6.139","0.629","3","51",""
"24","R_3I0QmhSkdAYPjxP","standard","1","24","LP","19.8235243429556","216.607","236.432","237.231","20.624","0.799","3","54",""
"25","R_3I0QmhSkdAYPjxP","standard","1","25","LP","0.264713485566566","238.24","238.505","239.499","1.259","0.994","3","57",""
"26","R_3I0QmhSkdAYPjxP","standard","1","26","LP","13.0392072382594","240.504","253.555","254.318","13.814","0.763","3","60",""
"27","R_3I0QmhSkdAYPjxP","standard","1","27","LP","13.0392072382594","255.319","268.359","269.035","13.716","0.676","3","63",""
"28","R_3I0QmhSkdAYPjxP","standard","1","28","LP","1.25738905644119","270.04","271.304","271.995","1.955","0.691","3","66",""
"29","R_3I0QmhSkdAYPjxP","standard","1","29","LP","13.0392072382594","273.011","286.055","NA","14.055","NA","0","66",""
"30","R_3I0QmhSkdAYPjxP","standard","1","30","LP","30","288.072","318.08","318.734","30.662","0.654","3","66","762"
"31","R_3I0QmhSkdAYPjxP","standard","1","31","LP","0.661783713916415","319.735","320.412","321.214","1.479","0.802","3","69",""
"32","R_3I0QmhSkdAYPjxP","standard","1","32","LP","0.661783713916415","322.217","322.88","323.632","1.415","0.752","3","72",""
"33","R_3I0QmhSkdAYPjxP","standard","1","33","LP","0.264713485566566","324.639","324.914","NA","1.278","NA","0","72",""
"34","R_3I0QmhSkdAYPjxP","standard","1","34","LP","13.0392072382594","326.918","339.96","340.663","13.745","0.703","3","75",""
"35","R_3I0QmhSkdAYPjxP","standard","1","35","LP","8.51632916846187","341.68","350.211","350.963","9.283","0.752","3","78",""
"36","R_3I0QmhSkdAYPjxP","standard","1","36","LP","0.264713485566566","351.979","352.247","353.028","1.049","0.781","3","81",""
"37","R_3I0QmhSkdAYPjxP","standard","1","37","LP","1.25738905644119","354.029","355.293","355.975","1.946","0.682","3","84",""
"38","R_3I0QmhSkdAYPjxP","standard","1","38","LP","5.5010771219302","356.975","362.479","363.162","6.187","0.683","3","87",""
"39","R_3I0QmhSkdAYPjxP","standard","1","39","LP","8.51632916846187","364.186","372.711","373.456","9.27","0.745","3","90",""
"40","R_3I0QmhSkdAYPjxP","standard","1","40","LP","13.0392072382594","374.464","387.514","388.16","13.696","0.646","3","93",""
"41","R_3I0QmhSkdAYPjxP","standard","1","41","LP","5.5010771219302","389.177","394.687","395.461","6.284","0.774","3","96",""
"42","R_3I0QmhSkdAYPjxP","standard","1","42","LP","8.51632916846187","396.466","404.997","405.697","9.231","0.7","3","96","2398"
"43","R_3I0QmhSkdAYPjxP","standard","1","43","LP","19.8235243429556","406.727","426.559","427.241","20.514","0.682","3","99",""
"44","R_3I0QmhSkdAYPjxP","standard","1","44","LP","30","428.248","458.255","458.857","30.609","0.602","3","102",""
"45","R_3I0QmhSkdAYPjxP","standard","1","45","LP","13.0392072382594","459.864","472.904","473.733","13.869","0.829","3","105",""
"46","R_3I0QmhSkdAYPjxP","standard","1","46","LP","3.49090909090909","474.736","478.226","478.998","4.262","0.772","3","108",""
"47","R_3I0QmhSkdAYPjxP","standard","1","47","LP","0.264713485566566","480.006","480.272","NA","1.276","NA","0","108",""
"48","R_3I0QmhSkdAYPjxP","standard","1","48","LP","19.8235243429556","482.287","502.111","502.877","20.59","0.766","3","111",""
"49","R_3I0QmhSkdAYPjxP","standard","1","49","LP","3.49090909090909","503.879","507.376","508.266","4.387","0.89","3","114",""
"50","R_3I0QmhSkdAYPjxP","standard","1","50","LP","0.264713485566566","509.28","509.552","510.303","1.023","0.751","3","117",""
"51","R_3I0QmhSkdAYPjxP","standard","1","51","LP","1.25738905644119","511.337","512.599","513.305","1.968","0.706","3","120",""
"52","R_3I0QmhSkdAYPjxP","standard","1","52","LP","3.49090909090909","514.308","517.801","518.43","4.122","0.629","3","123",""
"53","R_3I0QmhSkdAYPjxP","standard","1","53","LP","5.5010771219302","519.432","524.936","525.578","6.146","0.642","3","126",""
"54","R_3I0QmhSkdAYPjxP","standard","1","54","LP","19.8235243429556","526.589","546.419","547.157","20.568","0.738","3","129",""
"55","R_3I0QmhSkdAYPjxP","standard","1","55","LP","8.51632916846187","548.159","556.688","557.447","9.288","0.759","3","132",""
"56","R_3I0QmhSkdAYPjxP","standard","1","56","LP","13.0392072382594","558.448","571.502","572.196","13.748","0.694","3","135",""
"57","R_3I0QmhSkdAYPjxP","standard","1","57","LP","0.661783713916415","573.203","573.872","574.852","1.649","0.98","3","138",""
"58","R_3I0QmhSkdAYPjxP","standard","1","58","LP","5.5010771219302","575.856","581.371","582.047","6.191","0.676","3","141",""
"59","R_3I0QmhSkdAYPjxP","standard","1","59","LP","3.49090909090909","583.048","586.544","587.325","4.277","0.781","3","144",""
"60","R_3I0QmhSkdAYPjxP","standard","1","60","LP","0.661783713916415","588.328","588.991","589.67","1.342","0.679","3","147",""
"61","R_3I0QmhSkdAYPjxP","standard","1","61","LP","13.0392072382594","590.704","603.752","604.383","13.679","0.631","3","150",""
"62","R_3I0QmhSkdAYPjxP","standard","1","62","LP","0.264713485566566","605.391","605.663","606.415","1.024","0.752","3","153",""
"63","R_3I0QmhSkdAYPjxP","standard","1","63","LP","8.51632916846187","607.415","615.935","616.618","9.203","0.683","3","156",""
"64","R_3I0QmhSkdAYPjxP","standard","1","64","LP","0.264713485566566","617.62","617.887","618.641","1.021","0.754","3","159",""
"65","R_3I0QmhSkdAYPjxP","standard","1","65","LP","0.661783713916415","619.647","620.319","621.009","1.362","0.69","3","162",""
"66","R_3I0QmhSkdAYPjxP","standard","1","66","LP","0.264713485566566","622.015","622.284","622.934","0.919","0.65","3","165",""
"67","R_3I0QmhSkdAYPjxP","standard","1","67","LP","5.5010771219302","623.947","629.455","630.161","6.214","0.706","3","168",""
"68","R_3I0QmhSkdAYPjxP","standard","1","68","LP","2.15079707022835","631.168","633.321","634.061","2.893","0.74","3","171",""
"69","R_3I0QmhSkdAYPjxP","standard","1","69","LP","3.49090909090909","635.076","638.584","639.301","4.225","0.717","3","174",""
"70","R_3I0QmhSkdAYPjxP","standard","1","70","LP","5.5010771219302","640.309","645.818","646.502","6.193","0.684","3","177",""
"71","R_3I0QmhSkdAYPjxP","standard","1","71","LP","3.49090909090909","647.504","651.001","NA","4.514","NA","0","177",""
"72","R_3I0QmhSkdAYPjxP","standard","1","72","LP","13.0392072382594","653.02","666.069","666.668","13.648","0.599","3","177","298"
"73","R_3I0QmhSkdAYPjxP","standard","1","73","LP","0.264713485566566","667.699","667.967","668.673","0.974","0.706","3","180",""
"74","R_3I0QmhSkdAYPjxP","standard","1","74","LP","1.25738905644119","669.68","670.944","671.682","2.002","0.738","3","183",""
"75","R_3I0QmhSkdAYPjxP","standard","1","75","LP","0.264713485566566","672.688","672.968","673.598","0.91","0.63","3","186",""
"76","R_3I0QmhSkdAYPjxP","standard","1","76","LP","13.0392072382594","674.608","687.656","688.332","13.724","0.676","3","189",""
"77","R_3I0QmhSkdAYPjxP","standard","1","77","LP","0.264713485566566","689.335","689.607","NA","1.272","NA","0","189",""
"78","R_3I0QmhSkdAYPjxP","standard","1","78","LP","2.15079707022835","691.608","693.76","NA","3.161","NA","0","189",""
"79","R_3I0QmhSkdAYPjxP","standard","1","79","LP","0.661783713916415","695.775","696.44","697.196","1.421","0.756","3","192",""
"80","R_3I0QmhSkdAYPjxP","standard","1","80","LP","5.5010771219302","698.2","703.704","704.552","6.352","0.848","3","195",""
"81","R_3I0QmhSkdAYPjxP","standard","1","81","LP","2.15079707022835","705.56","707.711","708.549","2.989","0.838","3","198",""
"82","R_3I0QmhSkdAYPjxP","standard","1","82","LP","0.661783713916415","709.55","710.216","710.952","1.402","0.736","3","201",""
"83","R_3I0QmhSkdAYPjxP","standard","1","83","LP","0.264713485566566","711.96","712.231","713.042","1.082","0.811","3","204",""
"84","R_3I0QmhSkdAYPjxP","standard","1","84","LP","3.49090909090909","714.047","717.543","NA","4.52","NA","0","204",""
"85","R_3I0QmhSkdAYPjxP","standard","1","85","LP","19.8235243429556","719.58","739.411","NA","20.834","NA","0","204",""
"86","R_3I0QmhSkdAYPjxP","standard","1","86","LP","2.15079707022835","741.422","743.581","744.431","3.009","0.85","3","204","98"
"87","R_3I0QmhSkdAYPjxP","standard","1","87","LP","19.8235243429556","745.437","765.264","766.013","20.576","0.749","3","207",""
"88","R_3I0QmhSkdAYPjxP","standard","1","88","LP","0.661783713916415","767.016","767.68","768.432","1.416","0.752","3","210",""
"89","R_3I0QmhSkdAYPjxP","standard","1","89","LP","19.8235243429556","769.44","789.272","790.237","20.797","0.965","3","213",""
"90","R_3I0QmhSkdAYPjxP","standard","1","90","LP","1.25738905644119","791.239","792.503","793.279","2.04","0.776","3","216",""
"91","R_3I0QmhSkdAYPjxP","standard","1","91","LP","0.661783713916415","794.288","794.951","795.779","1.491","0.828","3","219",""
"92","R_3I0QmhSkdAYPjxP","standard","1","92","LP","2.15079707022835","796.791","798.943","799.593","2.802","0.65","3","222",""
"93","R_3I0QmhSkdAYPjxP","standard","1","93","LP","19.8235243429556","800.599","820.423","821.083","20.484","0.66","3","225",""
"94","R_3I0QmhSkdAYPjxP","standard","1","94","LP","3.49090909090909","822.087","825.594","826.293","4.206","0.699","3","228",""
"95","R_3I0QmhSkdAYPjxP","standard","1","95","LP","30","827.309","857.32","NA","31.023","NA","0","228",""
"96","R_3I0QmhSkdAYPjxP","standard","1","96","LP","30","859.336","889.344","889.958","30.622","0.614","3","228","1011"
"97","R_3I0QmhSkdAYPjxP","standard","2","1","LP","13.0392072382594","0","13.042","13.78","13.78","0.738","3","231",NA
"98","R_3I0QmhSkdAYPjxP","standard","2","2","LP","0.264713485566566","14.785","15.057","15.754","0.969","0.697","3","234",NA
"99","R_3I0QmhSkdAYPjxP","standard","2","3","LP","2.15079707022835","16.778","18.928","19.806","3.028","0.878","3","237",NA
"100","R_3I0QmhSkdAYPjxP","standard","2","4","LP","30","20.808","50.817","51.521","30.713","0.704","3","240",NA
"101","R_3I0QmhSkdAYPjxP","standard","2","5","LP","0.264713485566566","52.522","52.806","53.633","1.111","0.827","3","243",NA
"102","R_3I0QmhSkdAYPjxP","standard","2","6","LP","0.661783713916415","54.635","55.301","55.998","1.363","0.697","3","246",NA
"103","R_3I0QmhSkdAYPjxP","standard","2","7","LP","3.49090909090909","57.008","60.506",NA,"4.504",NA,"0","246",NA
"104","R_3I0QmhSkdAYPjxP","standard","2","8","LP","30","62.512","92.519","93.15","30.638","0.631","3","249",NA
"105","R_3I0QmhSkdAYPjxP","standard","2","9","LP","19.8235243429556","94.154","113.978","114.726","20.572","0.748","3","252",NA
"106","R_3I0QmhSkdAYPjxP","standard","2","10","LP","8.51632916846187","115.73","124.25","125.044","9.314","0.794","3","255",NA
"107","R_3I0QmhSkdAYPjxP","standard","2","11","LP","0.661783713916415","126.05","126.714","127.65","1.6","0.936","3","258",NA
"108","R_3I0QmhSkdAYPjxP","standard","2","12","LP","19.8235243429556","128.657","148.487","149.148","20.491","0.661","3","261",NA
"109","R_3I0QmhSkdAYPjxP","standard","2","13","LP","0.661783713916415","150.201","150.872","151.647","1.446","0.775","3","264",NA
"110","R_3I0QmhSkdAYPjxP","standard","2","14","LP","19.8235243429556","152.65","172.487","173.269","20.619","0.782","3","267",NA
"111","R_3I0QmhSkdAYPjxP","standard","2","15","LP","3.49090909090909","174.273","177.779","178.586","4.313","0.807","3","270",NA
"112","R_3I0QmhSkdAYPjxP","standard","2","16","LP","1.25738905644119","179.594","180.857",NA,"2.272",NA,"0","270",NA
"113","R_3I0QmhSkdAYPjxP","standard","2","17","LP","5.5010771219302","182.874","188.39","189.057","6.183","0.667","3","273",NA
"114","R_3I0QmhSkdAYPjxP","standard","2","18","LP","3.49090909090909","190.058","193.556","194.215","4.157","0.659","3","276",NA
"115","R_3I0QmhSkdAYPjxP","standard","2","19","LP","8.51632916846187","195.217","203.736","204.393","9.176","0.657","3","279",NA
"116","R_3I0QmhSkdAYPjxP","standard","2","20","LP","19.8235243429556","205.393","225.24","225.911","20.518","0.671","3","282",NA
"117","R_3I0QmhSkdAYPjxP","standard","2","21","LP","19.8235243429556","226.913","246.737","247.359","20.446","0.622","3","285",NA
"118","R_3I0QmhSkdAYPjxP","standard","2","22","LP","0.661783713916415","248.369","249.033","249.721","1.352","0.688","3","288",NA
"119","R_3I0QmhSkdAYPjxP","standard","2","23","LP","30","250.722","280.729","281.336","30.614","0.607","3","291",NA
"120","R_3I0QmhSkdAYPjxP","standard","2","24","LP","1.25738905644119","282.34","283.602",NA,"2.271",NA,"0","291",NA
"121","R_3I0QmhSkdAYPjxP","standard","2","25","LP","0.661783713916415","285.617","286.282","286.965","1.348","0.683","3","294",NA
"122","R_3I0QmhSkdAYPjxP","standard","2","26","LP","2.15079707022835","287.983","290.134","291.016","3.033","0.882","3","297",NA
"123","R_3I0QmhSkdAYPjxP","standard","2","27","LP","19.8235243429556","292.016","311.842",NA,"20.834",NA,"0","297",NA
"124","R_3I0QmhSkdAYPjxP","standard","2","28","LP","3.49090909090909","313.857","317.365","318.048","4.191","0.683","3","300",NA
"125","R_3I0QmhSkdAYPjxP","standard","2","29","LP","5.5010771219302","319.065","324.569","325.237","6.172","0.668","3","303",NA
"126","R_3I0QmhSkdAYPjxP","standard","2","30","LP","30","326.242","356.249","356.979","30.737","0.73","3","306",NA
"127","R_3I0QmhSkdAYPjxP","standard","2","31","LP","30","357.996","388.012","388.647","30.651","0.635","3","309",NA
"128","R_3I0QmhSkdAYPjxP","standard","2","32","LP","19.8235243429556","389.663","409.493","410.235","20.572","0.742","3","312",NA
"129","R_3I0QmhSkdAYPjxP","standard","2","33","LP","3.49090909090909","411.276","414.777","415.478","4.202","0.701","3","315",NA
"130","R_3I0QmhSkdAYPjxP","standard","2","34","LP","30","416.493","446.496","447.152","30.659","0.656","3","318",NA
"131","R_3I0QmhSkdAYPjxP","standard","2","35","LP","30","448.16","478.169","478.816","30.656","0.647","3","321",NA
"132","R_3I0QmhSkdAYPjxP","standard","2","36","LP","3.49090909090909","479.817","483.309","484.057","4.24","0.748","3","324",NA
"133","R_3I0QmhSkdAYPjxP","standard","2","37","LP","13.0392072382594","485.073","498.12",NA,"14.052",NA,"0","324",NA
"134","R_3I0QmhSkdAYPjxP","standard","2","38","LP","30","500.128","530.129","530.769","30.641","0.64","3","327",NA
"135","R_3I0QmhSkdAYPjxP","standard","2","39","LP","19.8235243429556","531.789","551.618","552.344","20.555","0.726","3","330",NA
"136","R_3I0QmhSkdAYPjxP","standard","2","40","LP","3.49090909090909","553.348","556.841","557.609","4.261","0.768","3","333",NA
"137","R_3I0QmhSkdAYPjxP","standard","2","41","LP","3.49090909090909","558.609","562.115","562.845","4.236","0.73","3","336",NA
"138","R_3I0QmhSkdAYPjxP","standard","2","42","LP","8.51632916846187","563.849","572.37","573.015","9.166","0.645","3","339",NA
"139","R_3I0QmhSkdAYPjxP","standard","2","43","LP","5.5010771219302","574.017","579.523","580.286","6.269","0.763","3","342",NA
"140","R_3I0QmhSkdAYPjxP","standard","2","44","LP","0.661783713916415","581.301","581.971","582.869","1.568","0.898","3","345",NA
"141","R_3I0QmhSkdAYPjxP","standard","2","45","LP","0.661783713916415","583.896","584.565","585.33","1.434","0.765","3","348",NA
"142","R_3I0QmhSkdAYPjxP","standard","2","46","LP","2.15079707022835","586.337","588.488",NA,"3.159",NA,"0","348",NA
"143","R_3I0QmhSkdAYPjxP","standard","2","47","LP","8.51632916846187","590.504","NaN","590.875","0.371","NaN","0","348",NA
"144","R_3I0QmhSkdAYPjxP","standard","2","48","LP","1.25738905644119","591.881","593.145",NA,"2.272",NA,"0","348",NA
