"","subject_id","condition","n_block","n_trialIdx","f_timing_condition","n_scheduled_delay","n_trial_start_time","n_rewarded_time_fin","n_sell_time_fin","n_time_waited_fin","RT_fin","n_trial_earnings_fin","n_total_earnings_fin","keypress_times"
"1","R_3J7ZCgNERwiOf7e","standard","1","1","LP","0.661783713916415","0.004","0.675","NA","1.683","NA","0","0",""
"2","R_3J7ZCgNERwiOf7e","standard","1","2","LP","13.0392072382594","2.692","15.739","16.446","13.754","0.707","3","3",""
"3","R_3J7ZCgNERwiOf7e","standard","1","3","LP","13.0392072382594","17.452","30.499","31.14","13.688","0.641","3","6",""
"4","R_3J7ZCgNERwiOf7e","standard","1","4","LP","19.8235243429556","32.147","51.981","52.719","20.572","0.738","3","9",""
"5","R_3J7ZCgNERwiOf7e","standard","1","5","LP","30","53.725","83.733","84.357","30.632","0.624","3","12",""
"6","R_3J7ZCgNERwiOf7e","standard","1","6","LP","0.264713485566566","85.366","85.636","NA","1.28","NA","0","12",""
"7","R_3J7ZCgNERwiOf7e","standard","1","7","LP","3.49090909090909","87.653","91.148","91.834","4.181","0.686","3","15",""
"8","R_3J7ZCgNERwiOf7e","standard","1","8","LP","1.25738905644119","92.837","94.1","94.787","1.95","0.687","3","18",""
"9","R_3J7ZCgNERwiOf7e","standard","1","9","LP","0.264713485566566","95.796","96.069","96.803","1.007","0.734","3","21",""
"10","R_3J7ZCgNERwiOf7e","standard","1","10","LP","8.51632916846187","97.813","106.333","107.036","9.223","0.703","3","24",""
"11","R_3J7ZCgNERwiOf7e","standard","1","11","LP","2.15079707022835","108.039","110.198","110.949","2.91","0.751","3","27",""
"12","R_3J7ZCgNERwiOf7e","standard","1","12","LP","2.15079707022835","111.958","114.111","114.758","2.8","0.647","3","30",""
"13","R_3J7ZCgNERwiOf7e","standard","1","13","LP","19.8235243429556","115.766","135.598","136.284","20.518","0.686","3","33",""
"14","R_3J7ZCgNERwiOf7e","standard","1","14","LP","5.5010771219302","137.295","142.799","143.447","6.152","0.648","3","36",""
"15","R_3J7ZCgNERwiOf7e","standard","1","15","LP","8.51632916846187","144.454","152.974","153.671","9.217","0.697","3","39",""
"16","R_3J7ZCgNERwiOf7e","standard","1","16","LP","0.264713485566566","154.679","154.95","155.737","1.058","0.787","3","42",""
"17","R_3J7ZCgNERwiOf7e","standard","1","17","LP","0.264713485566566","156.743","157.014","157.821","1.078","0.807","3","45",""
"18","R_3J7ZCgNERwiOf7e","standard","1","18","LP","30","158.83","188.84","189.497","30.667","0.657","3","48",""
"19","R_3J7ZCgNERwiOf7e","standard","1","19","LP","30","190.505","220.511","221.143","30.638","0.632","3","51",""
"20","R_3J7ZCgNERwiOf7e","standard","1","20","LP","30","222.152","252.162","252.776","30.624","0.614","3","54",""
"21","R_3J7ZCgNERwiOf7e","standard","1","21","LP","1.25738905644119","253.786","255.05","255.673","1.887","0.623","3","57",""
"22","R_3J7ZCgNERwiOf7e","standard","1","22","LP","0.661783713916415","256.682","257.345","258.024","1.342","0.679","3","60",""
"23","R_3J7ZCgNERwiOf7e","standard","1","23","LP","2.15079707022835","259.034","261.195","261.848","2.814","0.653","3","63",""
"24","R_3J7ZCgNERwiOf7e","standard","1","24","LP","19.8235243429556","262.857","282.69","283.511","20.654","0.821","3","66",""
"25","R_3J7ZCgNERwiOf7e","standard","1","25","LP","30","284.515","314.517","315.146","30.631","0.629","3","69",""
"26","R_3J7ZCgNERwiOf7e","standard","1","26","LP","8.51632916846187","316.155","324.675","325.418","9.263","0.743","3","72",""
"27","R_3J7ZCgNERwiOf7e","standard","1","27","LP","1.25738905644119","326.421","327.682","328.428","2.007","0.746","3","75",""
"28","R_3J7ZCgNERwiOf7e","standard","1","28","LP","3.49090909090909","329.432","332.931","333.607","4.175","0.676","3","78",""
"29","R_3J7ZCgNERwiOf7e","standard","1","29","LP","1.25738905644119","334.611","335.875","336.585","1.974","0.71","3","81",""
"30","R_3J7ZCgNERwiOf7e","standard","1","30","LP","13.0392072382594","337.595","350.641","351.403","13.808","0.762","3","84",""
"31","R_3J7ZCgNERwiOf7e","standard","1","31","LP","30","352.413","382.421","383.307","30.894","0.886","3","87",""
"32","R_3J7ZCgNERwiOf7e","standard","1","32","LP","13.0392072382594","384.317","397.365","398.15","13.833","0.785","3","90",""
"33","R_3J7ZCgNERwiOf7e","standard","1","33","LP","30","399.157","429.169","429.755","30.598","0.586","3","93",""
"34","R_3J7ZCgNERwiOf7e","standard","1","34","LP","2.15079707022835","430.758","432.918","433.674","2.916","0.756","3","96",""
"35","R_3J7ZCgNERwiOf7e","standard","1","35","LP","1.25738905644119","434.678","435.942","436.644","1.966","0.702","3","99",""
"36","R_3J7ZCgNERwiOf7e","standard","1","36","LP","13.0392072382594","437.653","450.702","451.403","13.75","0.701","3","102",""
"37","R_3J7ZCgNERwiOf7e","standard","1","37","LP","5.5010771219302","452.406","457.91","458.648","6.242","0.738","3","105",""
"38","R_3J7ZCgNERwiOf7e","standard","1","38","LP","30","459.654","489.664","490.354","30.7","0.69","3","108",""
"39","R_3J7ZCgNERwiOf7e","standard","1","39","LP","30","491.36","521.368","522.128","30.768","0.76","3","111",""
"40","R_3J7ZCgNERwiOf7e","standard","1","40","LP","0.264713485566566","523.137","523.408","524.38","1.243","0.972","3","114",""
"41","R_3J7ZCgNERwiOf7e","standard","1","41","LP","1.25738905644119","525.386","526.65","527.343","1.957","0.693","3","117",""
"42","R_3J7ZCgNERwiOf7e","standard","1","42","LP","0.661783713916415","528.352","529.017","529.761","1.409","0.744","3","120",""
"43","R_3J7ZCgNERwiOf7e","standard","1","43","LP","13.0392072382594","530.771","543.817","544.612","13.841","0.795","3","123",""
"44","R_3J7ZCgNERwiOf7e","standard","1","44","LP","8.51632916846187","545.617","554.137","554.8","9.183","0.663","3","126",""
"45","R_3J7ZCgNERwiOf7e","standard","1","45","LP","30","555.81","585.819","586.605","30.795","0.786","3","129",""
"46","R_3J7ZCgNERwiOf7e","standard","1","46","LP","5.5010771219302","587.611","593.114","593.852","6.241","0.738","3","132",""
"47","R_3J7ZCgNERwiOf7e","standard","1","47","LP","0.264713485566566","594.859","595.125","595.934","1.075","0.809","3","135",""
"48","R_3J7ZCgNERwiOf7e","standard","1","48","LP","3.49090909090909","596.938","600.434","601.165","4.227","0.731","3","138",""
"49","R_3J7ZCgNERwiOf7e","standard","1","49","LP","8.51632916846187","602.171","610.69","611.404","9.233","0.714","3","141",""
"50","R_3J7ZCgNERwiOf7e","standard","1","50","LP","13.0392072382594","612.41","625.459","626.303","13.893","0.844","3","144",""
"51","R_3J7ZCgNERwiOf7e","standard","1","51","LP","5.5010771219302","627.306","632.811","633.549","6.243","0.738","3","147",""
"52","R_3J7ZCgNERwiOf7e","standard","1","52","LP","0.661783713916415","634.555","635.219","636.094","1.539","0.875","3","150",""
"53","R_3J7ZCgNERwiOf7e","standard","1","53","LP","19.8235243429556","637.099","656.927","657.714","20.615","0.787","3","153",""
"54","R_3J7ZCgNERwiOf7e","standard","1","54","LP","3.49090909090909","658.718","662.213","662.912","4.194","0.699","3","156",""
"55","R_3J7ZCgNERwiOf7e","standard","1","55","LP","19.8235243429556","663.917","683.749","684.527","20.61","0.778","3","159",""
"56","R_3J7ZCgNERwiOf7e","standard","1","56","LP","30","685.532","715.535","716.178","30.646","0.643","3","162",""
"57","R_3J7ZCgNERwiOf7e","standard","1","57","LP","0.264713485566566","717.182","717.454","718.294","1.112","0.84","3","165",""
"58","R_3J7ZCgNERwiOf7e","standard","1","58","LP","5.5010771219302","719.302","724.806","725.606","6.304","0.8","3","168",""
"59","R_3J7ZCgNERwiOf7e","standard","1","59","LP","8.51632916846187","726.614","735.135","735.954","9.34","0.819","3","171",""
"60","R_3J7ZCgNERwiOf7e","standard","1","60","LP","13.0392072382594","736.958","750.006","750.786","13.828","0.78","3","174",""
"61","R_3J7ZCgNERwiOf7e","standard","1","61","LP","0.264713485566566","751.79","752.062","NA","1.281","NA","0","174",""
"62","R_3J7ZCgNERwiOf7e","standard","1","62","LP","0.264713485566566","754.079","754.35","755.15","1.071","0.8","3","177",""
"63","R_3J7ZCgNERwiOf7e","standard","1","63","LP","19.8235243429556","756.159","775.992","776.769","20.61","0.777","3","180",""
"64","R_3J7ZCgNERwiOf7e","standard","1","64","LP","3.49090909090909","777.776","781.272","781.971","4.195","0.699","3","183",""
"65","R_3J7ZCgNERwiOf7e","standard","1","65","LP","5.5010771219302","782.976","788.48","789.47","6.494","0.99","3","186",""
"66","R_3J7ZCgNERwiOf7e","standard","1","66","LP","0.264713485566566","790.481","790.752","791.505","1.024","0.753","3","189",""
"67","R_3J7ZCgNERwiOf7e","standard","1","67","LP","5.5010771219302","792.512","798.016","798.801","6.289","0.785","3","192",""
"68","R_3J7ZCgNERwiOf7e","standard","1","68","LP","0.661783713916415","799.808","800.472","801.312","1.504","0.84","3","195",""
"69","R_3J7ZCgNERwiOf7e","standard","1","69","LP","0.264713485566566","802.32","802.592","803.38","1.06","0.788","3","198",""
"70","R_3J7ZCgNERwiOf7e","standard","1","70","LP","1.25738905644119","804.386","805.648","806.383","1.997","0.735","3","201",""
"71","R_3J7ZCgNERwiOf7e","standard","1","71","LP","0.661783713916415","807.404","808.072","808.767","1.363","0.695","3","204",""
"72","R_3J7ZCgNERwiOf7e","standard","1","72","LP","2.15079707022835","809.784","811.937","812.608","2.824","0.671","3","207",""
"73","R_3J7ZCgNERwiOf7e","standard","1","73","LP","19.8235243429556","813.616","833.445","834.262","20.646","0.817","3","210",""
"74","R_3J7ZCgNERwiOf7e","standard","1","74","LP","0.661783713916415","835.265","835.93","836.752","1.487","0.822","3","213",""
"75","R_3J7ZCgNERwiOf7e","standard","1","75","LP","19.8235243429556","837.762","857.593","858.403","20.641","0.81","3","216",""
"76","R_3J7ZCgNERwiOf7e","standard","1","76","LP","8.51632916846187","859.409","867.929","868.659","9.25","0.73","3","219",""
"77","R_3J7ZCgNERwiOf7e","standard","1","77","LP","0.661783713916415","869.665","870.331","871.091","1.426","0.76","3","222",""
"78","R_3J7ZCgNERwiOf7e","standard","1","78","LP","2.15079707022835","872.097","874.257","874.944","2.847","0.687","3","225",""
"79","R_3J7ZCgNERwiOf7e","standard","1","79","LP","0.661783713916415","875.948","876.617","877.277","1.329","0.66","3","228",""
"80","R_3J7ZCgNERwiOf7e","standard","1","80","LP","1.25738905644119","878.281","879.541","880.369","2.088","0.828","3","231",""
"81","R_3J7ZCgNERwiOf7e","standard","1","81","LP","3.49090909090909","881.377","884.875","885.811","4.434","0.936","3","234",""
"82","R_3J7ZCgNERwiOf7e","standard","2","1","LP","8.51632916846187","0.001","NaN","1.596","1.595","NaN","0","234",NA
"83","R_3J7ZCgNERwiOf7e","standard","2","2","LP","13.0392072382594","2.601","NaN","3.871","1.27","NaN","0","234",NA
"84","R_3J7ZCgNERwiOf7e","standard","2","3","LP","30","4.881","NaN","6.586","1.705","NaN","0","234",NA
"85","R_3J7ZCgNERwiOf7e","standard","2","4","LP","0.661783713916415","7.594","8.259","8.796","1.202","0.537","3","237",NA
"86","R_3J7ZCgNERwiOf7e","standard","2","5","LP","0.661783713916415","9.802","10.466",NA,"1.673",NA,"0","237",NA
"87","R_3J7ZCgNERwiOf7e","standard","2","6","LP","0.264713485566566","12.482","12.755","13.18","0.698","0.425","3","240",NA
"88","R_3J7ZCgNERwiOf7e","standard","2","7","LP","8.51632916846187","14.186","NaN","14.888","0.702","NaN","0","240",NA
"89","R_3J7ZCgNERwiOf7e","standard","2","8","LP","3.49090909090909","15.89","NaN","16.552","0.662","NaN","0","240",NA
"90","R_3J7ZCgNERwiOf7e","standard","2","9","LP","1.25738905644119","17.565","18.834","19.481","1.916","0.647","3","243",NA
"91","R_3J7ZCgNERwiOf7e","standard","2","10","LP","5.5010771219302","20.49","25.994","26.818","6.328","0.824","3","246",NA
"92","R_3J7ZCgNERwiOf7e","standard","2","11","LP","13.0392072382594","27.827","NaN","31.594","3.767","NaN","0","246",NA
"93","R_3J7ZCgNERwiOf7e","standard","2","12","LP","8.51632916846187","32.601","NaN","33.785","1.184","NaN","0","246",NA
"94","R_3J7ZCgNERwiOf7e","standard","2","13","LP","0.661783713916415","34.794","35.466","36.233","1.439","0.767","3","249",NA
"95","R_3J7ZCgNERwiOf7e","standard","2","14","LP","0.661783713916415","37.242","37.908","38.873","1.631","0.965","3","252",NA
"96","R_3J7ZCgNERwiOf7e","standard","2","15","LP","3.49090909090909","39.883","43.378","44.136","4.253","0.758","3","255",NA
"97","R_3J7ZCgNERwiOf7e","standard","2","16","LP","30","45.146","NaN","70.642","25.496","NaN","0","255",NA
"98","R_3J7ZCgNERwiOf7e","standard","2","17","LP","0.661783713916415","71.653","72.315","73.079","1.426","0.764","3","258",NA
"99","R_3J7ZCgNERwiOf7e","standard","2","18","LP","1.25738905644119","74.084","75.348","76.14","2.056","0.792","3","261",NA
"100","R_3J7ZCgNERwiOf7e","standard","2","19","LP","30","77.148","NaN","84.781","7.633","NaN","0","261",NA
"101","R_3J7ZCgNERwiOf7e","standard","2","20","LP","5.5010771219302","85.788","91.3","92.154","6.366","0.854","3","264",NA
"102","R_3J7ZCgNERwiOf7e","standard","2","21","LP","5.5010771219302","93.164","98.668","99.47","6.306","0.802","3","267",NA
"103","R_3J7ZCgNERwiOf7e","standard","2","22","LP","2.15079707022835","100.476","102.629","103.386","2.91","0.757","3","270",NA
"104","R_3J7ZCgNERwiOf7e","standard","2","23","LP","5.5010771219302","104.396","109.899","110.618","6.222","0.719","3","273",NA
"105","R_3J7ZCgNERwiOf7e","standard","2","24","LP","0.661783713916415","111.628","112.292","113.147","1.519","0.855","3","276",NA
"106","R_3J7ZCgNERwiOf7e","standard","2","25","LP","5.5010771219302","114.156","119.661","120.396","6.24","0.735","3","279",NA
"107","R_3J7ZCgNERwiOf7e","standard","2","26","LP","19.8235243429556","121.404","141.229","141.374","19.97","0.145","3","282",NA
"108","R_3J7ZCgNERwiOf7e","standard","2","27","LP","2.15079707022835","142.381","144.533","145.233","2.852","0.7","3","285",NA
"109","R_3J7ZCgNERwiOf7e","standard","2","28","LP","1.25738905644119","146.235","147.501","148.282","2.047","0.781","3","288",NA
"110","R_3J7ZCgNERwiOf7e","standard","2","29","LP","2.15079707022835","149.286","151.446","152.279","2.993","0.833","3","291",NA
"111","R_3J7ZCgNERwiOf7e","standard","2","30","LP","1.25738905644119","153.285","154.55","155.323","2.038","0.773","3","294",NA
"112","R_3J7ZCgNERwiOf7e","standard","2","31","LP","8.51632916846187","156.333","164.854","165.638","9.305","0.784","3","297",NA
"113","R_3J7ZCgNERwiOf7e","standard","2","32","LP","13.0392072382594","166.645","NaN","178.049","11.404","NaN","0","297",NA
"114","R_3J7ZCgNERwiOf7e","standard","2","33","LP","2.15079707022835","179.054","181.216","182.014","2.96","0.798","3","300",NA
"115","R_3J7ZCgNERwiOf7e","standard","2","34","LP","1.25738905644119","183.016","184.277","185.019","2.003","0.742","3","303",NA
"116","R_3J7ZCgNERwiOf7e","standard","2","35","LP","0.264713485566566","186.022","186.294","187.173","1.151","0.879","3","306",NA
"117","R_3J7ZCgNERwiOf7e","standard","2","36","LP","0.661783713916415","188.175","188.838","189.59","1.415","0.752","3","309",NA
"118","R_3J7ZCgNERwiOf7e","standard","2","37","LP","5.5010771219302","190.599","196.103","196.929","6.33","0.826","3","312",NA
"119","R_3J7ZCgNERwiOf7e","standard","2","38","LP","2.15079707022835","197.931","200.087","200.868","2.937","0.781","3","315",NA
"120","R_3J7ZCgNERwiOf7e","standard","2","39","LP","1.25738905644119","201.871","203.134","203.948","2.077","0.814","3","318",NA
"121","R_3J7ZCgNERwiOf7e","standard","2","40","LP","2.15079707022835","204.958","207.111","207.868","2.91","0.757","3","321",NA
"122","R_3J7ZCgNERwiOf7e","standard","2","41","LP","0.264713485566566","208.871","209.143","209.883","1.012","0.74","3","324",NA
"123","R_3J7ZCgNERwiOf7e","standard","2","42","LP","1.25738905644119","210.887","212.151","212.878","1.991","0.727","3","327",NA
"124","R_3J7ZCgNERwiOf7e","standard","2","43","LP","1.25738905644119","213.887","215.151","215.869","1.982","0.718","3","330",NA
"125","R_3J7ZCgNERwiOf7e","standard","2","44","LP","5.5010771219302","216.879","222.384","223.101","6.222","0.717","3","333",NA
"126","R_3J7ZCgNERwiOf7e","standard","2","45","LP","13.0392072382594","224.111","NaN","230.799","6.688","NaN","0","333",NA
"127","R_3J7ZCgNERwiOf7e","standard","2","46","LP","2.15079707022835","231.807","233.967","234.795","2.988","0.828","3","336",NA
"128","R_3J7ZCgNERwiOf7e","standard","2","47","LP","1.25738905644119","235.799","237.063","237.852","2.053","0.789","3","339",NA
"129","R_3J7ZCgNERwiOf7e","standard","2","48","LP","19.8235243429556","238.863","NaN","244.123","5.26","NaN","0","339",NA
"130","R_3J7ZCgNERwiOf7e","standard","2","49","LP","3.49090909090909","245.136","248.632","249.392","4.256","0.76","3","342",NA
"131","R_3J7ZCgNERwiOf7e","standard","2","50","LP","13.0392072382594","250.4","263.448","264.204","13.804","0.756","3","345",NA
"132","R_3J7ZCgNERwiOf7e","standard","2","51","LP","19.8235243429556","265.208","285.04","285.823","20.615","0.783","3","348",NA
"133","R_3J7ZCgNERwiOf7e","standard","2","52","LP","0.264713485566566","286.832","287.11","287.997","1.165","0.887","3","351",NA
"134","R_3J7ZCgNERwiOf7e","standard","2","53","LP","19.8235243429556","289","308.828",NA,"20.834",NA,"0","351",NA
"135","R_3J7ZCgNERwiOf7e","standard","2","54","LP","0.264713485566566","310.842","311.113",NA,"1.274",NA,"0","351",NA
"136","R_3J7ZCgNERwiOf7e","standard","2","55","LP","19.8235243429556","313.118","NaN","318.324","5.206","NaN","0","351",NA
"137","R_3J7ZCgNERwiOf7e","standard","2","56","LP","1.25738905644119","319.329","320.594","321.285","1.956","0.691","3","354",NA
"138","R_3J7ZCgNERwiOf7e","standard","2","57","LP","13.0392072382594","322.29","335.331","336.03","13.74","0.699","3","357",NA
"139","R_3J7ZCgNERwiOf7e","standard","2","58","LP","3.49090909090909","337.032","340.526","341.245","4.213","0.719","3","360",NA
"140","R_3J7ZCgNERwiOf7e","standard","2","59","LP","0.661783713916415","342.25","342.915","343.651","1.401","0.736","3","363",NA
"141","R_3J7ZCgNERwiOf7e","standard","2","60","LP","2.15079707022835","344.658","346.82","347.564","2.906","0.744","3","366",NA
"142","R_3J7ZCgNERwiOf7e","standard","2","61","LP","8.51632916846187","348.57","357.09","357.822","9.252","0.732","3","369",NA
"143","R_3J7ZCgNERwiOf7e","standard","2","62","LP","3.49090909090909","358.826","362.318","363.035","4.209","0.717","3","372",NA
"144","R_3J7ZCgNERwiOf7e","standard","2","63","LP","0.661783713916415","364.037","364.706","365.49","1.453","0.784","3","375",NA
"145","R_3J7ZCgNERwiOf7e","standard","2","64","LP","5.5010771219302","366.499","372.019","372.815","6.316","0.796","3","378",NA
"146","R_3J7ZCgNERwiOf7e","standard","2","65","LP","0.264713485566566","373.823","374.091","374.784","0.961","0.693","3","381",NA
"147","R_3J7ZCgNERwiOf7e","standard","2","66","LP","30","375.787","405.795","406.621","30.834","0.826","3","384",NA
"148","R_3J7ZCgNERwiOf7e","standard","2","67","LP","0.264713485566566","407.626","407.899","408.671","1.045","0.772","3","387",NA
"149","R_3J7ZCgNERwiOf7e","standard","2","68","LP","0.264713485566566","409.675","409.947","410.641","0.966","0.694","3","390",NA
"150","R_3J7ZCgNERwiOf7e","standard","2","69","LP","1.25738905644119","411.651","412.916","413.636","1.985","0.72","3","393",NA
"151","R_3J7ZCgNERwiOf7e","standard","2","70","LP","3.49090909090909","414.643","418.139","418.891","4.248","0.752","3","396",NA
"152","R_3J7ZCgNERwiOf7e","standard","2","71","LP","1.25738905644119","419.899","421.163","421.901","2.002","0.738","3","399",NA
"153","R_3J7ZCgNERwiOf7e","standard","2","72","LP","0.661783713916415","422.907","423.571","424.34","1.433","0.769","3","402",NA
"154","R_3J7ZCgNERwiOf7e","standard","2","73","LP","0.661783713916415","425.348","426.013","426.703","1.355","0.69","3","405",NA
"155","R_3J7ZCgNERwiOf7e","standard","2","74","LP","0.661783713916415","427.709","428.373","429.054","1.345","0.681","3","408",NA
"156","R_3J7ZCgNERwiOf7e","standard","2","75","LP","1.25738905644119","430.06","431.319","432.016","1.956","0.697","3","411",NA
"157","R_3J7ZCgNERwiOf7e","standard","2","76","LP","13.0392072382594","433.023","NaN","443.295","10.272","NaN","0","411",NA
"158","R_3J7ZCgNERwiOf7e","standard","2","77","LP","19.8235243429556","444.3","NaN","457.942","13.642","NaN","0","411",NA
"159","R_3J7ZCgNERwiOf7e","standard","2","78","LP","30","458.949","488.958","489.633","30.684","0.675","3","414",NA
"160","R_3J7ZCgNERwiOf7e","standard","2","79","LP","13.0392072382594","490.639","503.687","504.414","13.775","0.727","3","417",NA
"161","R_3J7ZCgNERwiOf7e","standard","2","80","LP","3.49090909090909","505.423","508.919","509.666","4.243","0.747","3","420",NA
"162","R_3J7ZCgNERwiOf7e","standard","2","81","LP","30","510.67","NaN","525.095","14.425","NaN","0","420",NA
"163","R_3J7ZCgNERwiOf7e","standard","2","82","LP","0.661783713916415","526.102","526.766","527.646","1.544","0.88","3","423",NA
"164","R_3J7ZCgNERwiOf7e","standard","2","83","LP","13.0392072382594","528.655","541.702","541.971","13.316","0.269","3","426",NA
"165","R_3J7ZCgNERwiOf7e","standard","2","84","LP","5.5010771219302","542.974","548.48","549.265","6.291","0.785","3","429",NA
"166","R_3J7ZCgNERwiOf7e","standard","2","85","LP","30","550.272","NaN","566.625","16.353","NaN","0","429",NA
"167","R_3J7ZCgNERwiOf7e","standard","2","86","LP","8.51632916846187","567.626","576.144","576.884","9.258","0.74","3","432",NA
"168","R_3J7ZCgNERwiOf7e","standard","2","87","LP","0.264713485566566","577.887","578.16","579.056","1.169","0.896","3","435",NA
"169","R_3J7ZCgNERwiOf7e","standard","2","88","LP","5.5010771219302","580.064","585.568","586.354","6.29","0.786","3","438",NA
"170","R_3J7ZCgNERwiOf7e","standard","2","89","LP","5.5010771219302","587.36","592.864","593.609","6.249","0.745","3","441",NA
"171","R_3J7ZCgNERwiOf7e","standard","2","90","LP","1.25738905644119","594.616","595.88","596.694","2.078","0.814","3","444",NA
"172","R_3J7ZCgNERwiOf7e","standard","2","91","LP","0.661783713916415","597.704","598.378","599.027","1.323","0.649","3","447",NA
