"","subject_id","condition","n_block","n_trialIdx","f_timing_condition","n_scheduled_delay","n_trial_start_time","n_rewarded_time_fin","n_sell_time_fin","n_time_waited_fin","RT_fin","n_trial_earnings_fin","n_total_earnings_fin","keypress_times"
"1","R_3J9SrgEMmotPqfD","standard","1","1","LP","1.25738905644119","0.001","1.259","1.704","1.703","0.445","3","3",""
"2","R_3J9SrgEMmotPqfD","standard","1","2","LP","2.15079707022835","2.712","4.867","5.163","2.451","0.296","3","6",""
"3","R_3J9SrgEMmotPqfD","standard","1","3","LP","13.0392072382594","6.172","19.215","19.513","13.341","0.298","3","9",""
"4","R_3J9SrgEMmotPqfD","standard","1","4","LP","0.661783713916415","20.515","21.18","21.958","1.443","0.778","3","12",""
"5","R_3J9SrgEMmotPqfD","standard","1","5","LP","3.49090909090909","22.963","26.459","26.758","3.795","0.299","3","15",""
"6","R_3J9SrgEMmotPqfD","standard","1","6","LP","2.15079707022835","27.763","29.915","30.191","2.428","0.276","3","18",""
"7","R_3J9SrgEMmotPqfD","standard","1","7","LP","19.8235243429556","31.195","51.027","51.365","20.17","0.338","3","21",""
"8","R_3J9SrgEMmotPqfD","standard","1","8","LP","30","52.371","82.379","82.719","30.348","0.34","3","24",""
"9","R_3J9SrgEMmotPqfD","standard","1","9","LP","1.25738905644119","83.723","84.987","85.513","1.79","0.526","3","27",""
"10","R_3J9SrgEMmotPqfD","standard","1","10","LP","30","86.515","116.519","116.861","30.346","0.342","3","30",""
"11","R_3J9SrgEMmotPqfD","standard","1","11","LP","19.8235243429556","117.867","137.691","138.029","20.162","0.338","3","33",""
"12","R_3J9SrgEMmotPqfD","standard","1","12","LP","13.0392072382594","139.035","152.083","152.457","13.422","0.374","3","36",""
"13","R_3J9SrgEMmotPqfD","standard","1","13","LP","3.49090909090909","153.459","156.955","157.362","3.903","0.407","3","39",""
"14","R_3J9SrgEMmotPqfD","standard","1","14","LP","2.15079707022835","158.363","160.515","161.082","2.719","0.567","3","42",""
"15","R_3J9SrgEMmotPqfD","standard","1","15","LP","13.0392072382594","162.091","175.139","175.483","13.392","0.344","3","45",""
"16","R_3J9SrgEMmotPqfD","standard","1","16","LP","19.8235243429556","176.492","196.323","196.644","20.152","0.321","3","48",""
"17","R_3J9SrgEMmotPqfD","standard","1","17","LP","0.661783713916415","197.651","198.315","198.765","1.114","0.45","3","51",""
"18","R_3J9SrgEMmotPqfD","standard","1","18","LP","1.25738905644119","199.771","201.035","201.324","1.553","0.289","3","54",""
"19","R_3J9SrgEMmotPqfD","standard","1","19","LP","1.25738905644119","202.331","203.595","203.89","1.559","0.295","3","57",""
"20","R_3J9SrgEMmotPqfD","standard","1","20","LP","0.264713485566566","204.899","205.172","205.597","0.698","0.425","3","60",""
"21","R_3J9SrgEMmotPqfD","standard","1","21","LP","19.8235243429556","206.604","226.435","226.77","20.166","0.335","3","63",""
"22","R_3J9SrgEMmotPqfD","standard","1","22","LP","13.0392072382594","227.771","240.819","241.191","13.42","0.372","3","66",""
"23","R_3J9SrgEMmotPqfD","standard","1","23","LP","5.5010771219302","242.195","247.699","248.119","5.924","0.42","3","69",""
"24","R_3J9SrgEMmotPqfD","standard","1","24","LP","19.8235243429556","249.123","268.947","269.399","20.276","0.452","3","72",""
"25","R_3J9SrgEMmotPqfD","standard","1","25","LP","19.8235243429556","270.403","290.235","290.65","20.247","0.415","3","75",""
"26","R_3J9SrgEMmotPqfD","standard","1","26","LP","5.5010771219302","291.651","297.155","297.655","6.004","0.5","3","78",""
"27","R_3J9SrgEMmotPqfD","standard","1","27","LP","5.5010771219302","298.66","304.163","304.498","5.838","0.335","3","81",""
"28","R_3J9SrgEMmotPqfD","standard","1","28","LP","8.51632916846187","305.499","314.019","314.31","8.811","0.291","3","84",""
"29","R_3J9SrgEMmotPqfD","standard","1","29","LP","8.51632916846187","315.315","323.835","324.291","8.976","0.456","3","87",""
"30","R_3J9SrgEMmotPqfD","standard","1","30","LP","2.15079707022835","325.299","327.451","328.401","3.102","0.95","3","90",""
"31","R_3J9SrgEMmotPqfD","standard","1","31","LP","5.5010771219302","329.404","334.909","335.376","5.972","0.467","3","93",""
"32","R_3J9SrgEMmotPqfD","standard","1","32","LP","30","336.379","366.387","366.831","30.452","0.444","3","96",""
"33","R_3J9SrgEMmotPqfD","standard","1","33","LP","1.25738905644119","367.835","369.099","369.664","1.829","0.565","3","99",""
"34","R_3J9SrgEMmotPqfD","standard","1","34","LP","2.15079707022835","370.667","372.819","NA","3.153","NA","0","99",""
"35","R_3J9SrgEMmotPqfD","standard","1","35","LP","13.0392072382594","374.821","387.867","388.343","13.522","0.476","3","102",""
"36","R_3J9SrgEMmotPqfD","standard","1","36","LP","19.8235243429556","389.347","409.179","409.548","20.201","0.369","3","105",""
"37","R_3J9SrgEMmotPqfD","standard","1","37","LP","0.661783713916415","410.555","411.219","411.705","1.15","0.486","3","108",""
"38","R_3J9SrgEMmotPqfD","standard","1","38","LP","3.49090909090909","412.708","416.203","416.561","3.853","0.358","3","111",""
"39","R_3J9SrgEMmotPqfD","standard","1","39","LP","0.661783713916415","417.571","418.235","418.553","0.982","0.318","3","114",""
"40","R_3J9SrgEMmotPqfD","standard","1","40","LP","0.264713485566566","419.555","419.827","420.145","0.59","0.318","3","117",""
"41","R_3J9SrgEMmotPqfD","standard","1","41","LP","19.8235243429556","421.147","440.979","441.367","20.22","0.388","3","120",""
"42","R_3J9SrgEMmotPqfD","standard","1","42","LP","30","442.372","472.379","472.644","30.272","0.265","3","123",""
"43","R_3J9SrgEMmotPqfD","standard","1","43","LP","0.661783713916415","473.651","474.315","474.657","1.006","0.342","3","126",""
"44","R_3J9SrgEMmotPqfD","standard","1","44","LP","8.51632916846187","475.659","484.179","484.616","8.957","0.437","3","129",""
"45","R_3J9SrgEMmotPqfD","standard","1","45","LP","0.661783713916415","485.619","486.291","486.579","0.96","0.288","3","132",""
"46","R_3J9SrgEMmotPqfD","standard","1","46","LP","0.661783713916415","487.587","488.251","488.532","0.945","0.281","3","135",""
"47","R_3J9SrgEMmotPqfD","standard","1","47","LP","0.661783713916415","489.539","490.204","490.54","1.001","0.336","3","138",""
"48","R_3J9SrgEMmotPqfD","standard","1","48","LP","0.264713485566566","491.547","491.819","492.159","0.612","0.34","3","141",""
"49","R_3J9SrgEMmotPqfD","standard","1","49","LP","0.661783713916415","493.163","493.827","494.134","0.971","0.307","3","144",""
"50","R_3J9SrgEMmotPqfD","standard","1","50","LP","13.0392072382594","495.139","508.187","508.574","13.435","0.387","3","147",""
"51","R_3J9SrgEMmotPqfD","standard","1","51","LP","30","509.579","539.587","539.857","30.278","0.27","3","150",""
"52","R_3J9SrgEMmotPqfD","standard","1","52","LP","8.51632916846187","540.867","549.387","549.799","8.932","0.412","3","153",""
"53","R_3J9SrgEMmotPqfD","standard","1","53","LP","3.49090909090909","550.803","554.299","554.656","3.853","0.357","3","156",""
"54","R_3J9SrgEMmotPqfD","standard","1","54","LP","30","555.659","585.667","585.92","30.261","0.253","3","159",""
"55","R_3J9SrgEMmotPqfD","standard","1","55","LP","5.5010771219302","586.923","592.425","592.802","5.879","0.377","3","162",""
"56","R_3J9SrgEMmotPqfD","standard","1","56","LP","2.15079707022835","593.804","595.955","596.295","2.491","0.34","3","165",""
"57","R_3J9SrgEMmotPqfD","standard","1","57","LP","0.264713485566566","597.299","597.571","597.913","0.614","0.342","3","168",""
"58","R_3J9SrgEMmotPqfD","standard","1","58","LP","8.51632916846187","598.923","607.444","607.858","8.935","0.414","3","171",""
"59","R_3J9SrgEMmotPqfD","standard","1","59","LP","0.661783713916415","608.867","609.531","609.827","0.96","0.296","3","174",""
"60","R_3J9SrgEMmotPqfD","standard","1","60","LP","1.25738905644119","610.835","612.099","612.443","1.608","0.344","3","177",""
"61","R_3J9SrgEMmotPqfD","standard","1","61","LP","19.8235243429556","613.451","633.283","633.649","20.198","0.366","3","180",""
"62","R_3J9SrgEMmotPqfD","standard","1","62","LP","0.661783713916415","634.651","635.315","635.605","0.954","0.29","3","183",""
"63","R_3J9SrgEMmotPqfD","standard","1","63","LP","13.0392072382594","636.62","649.667","650.07","13.45","0.403","3","186",""
"64","R_3J9SrgEMmotPqfD","standard","1","64","LP","0.661783713916415","651.075","651.739","652.038","0.963","0.299","3","189",""
"65","R_3J9SrgEMmotPqfD","standard","1","65","LP","2.15079707022835","653.045","655.203","655.528","2.483","0.325","3","192",""
"66","R_3J9SrgEMmotPqfD","standard","1","66","LP","0.264713485566566","656.531","656.803","657.161","0.63","0.358","3","195",""
"67","R_3J9SrgEMmotPqfD","standard","1","67","LP","19.8235243429556","658.163","677.987","678.348","20.185","0.361","3","198",""
"68","R_3J9SrgEMmotPqfD","standard","1","68","LP","3.49090909090909","679.356","682.851","683.269","3.913","0.418","3","201",""
"69","R_3J9SrgEMmotPqfD","standard","1","69","LP","2.15079707022835","684.276","686.435","686.792","2.516","0.357","3","204",""
"70","R_3J9SrgEMmotPqfD","standard","1","70","LP","19.8235243429556","687.795","707.627","708.017","20.222","0.39","3","207",""
"71","R_3J9SrgEMmotPqfD","standard","1","71","LP","5.5010771219302","709.019","714.523","714.972","5.953","0.449","3","210",""
"72","R_3J9SrgEMmotPqfD","standard","1","72","LP","8.51632916846187","715.979","724.499","724.864","8.885","0.365","3","213",""
"73","R_3J9SrgEMmotPqfD","standard","1","73","LP","8.51632916846187","725.871","734.395","734.91","9.039","0.515","3","216",""
"74","R_3J9SrgEMmotPqfD","standard","1","74","LP","19.8235243429556","735.915","755.747","756.352","20.437","0.605","3","219",""
"75","R_3J9SrgEMmotPqfD","standard","1","75","LP","8.51632916846187","757.364","765.883","766.278","8.914","0.395","3","222",""
"76","R_3J9SrgEMmotPqfD","standard","1","76","LP","5.5010771219302","767.283","772.787","773.134","5.851","0.347","3","225",""
"77","R_3J9SrgEMmotPqfD","standard","1","77","LP","0.264713485566566","774.139","774.405","774.803","0.664","0.398","3","228",""
"78","R_3J9SrgEMmotPqfD","standard","1","78","LP","3.49090909090909","775.804","779.299","779.633","3.829","0.334","3","231",""
"79","R_3J9SrgEMmotPqfD","standard","1","79","LP","8.51632916846187","780.635","789.155","789.536","8.901","0.381","3","234",""
"80","R_3J9SrgEMmotPqfD","standard","1","80","LP","8.51632916846187","790.539","799.059","799.407","8.868","0.348","3","237",""
"81","R_3J9SrgEMmotPqfD","standard","1","81","LP","13.0392072382594","800.408","813.451","813.795","13.387","0.344","3","240",""
"82","R_3J9SrgEMmotPqfD","standard","1","82","LP","8.51632916846187","814.803","823.323","823.676","8.873","0.353","3","243",""
"83","R_3J9SrgEMmotPqfD","standard","1","83","LP","0.264713485566566","824.683","824.955","825.322","0.639","0.367","3","246",""
"84","R_3J9SrgEMmotPqfD","standard","1","84","LP","1.25738905644119","826.323","827.587","827.88","1.557","0.293","3","249",""
"85","R_3J9SrgEMmotPqfD","standard","1","85","LP","0.661783713916415","828.883","829.547","829.89","1.007","0.343","3","252",""
"86","R_3J9SrgEMmotPqfD","standard","1","86","LP","5.5010771219302","830.899","836.404","836.757","5.858","0.353","3","255",""
"87","R_3J9SrgEMmotPqfD","standard","1","87","LP","30","837.763","867.771","868.107","30.344","0.336","3","258",""
"88","R_3J9SrgEMmotPqfD","standard","1","88","LP","1.25738905644119","869.111","870.371","870.725","1.614","0.354","3","261",""
"89","R_3J9SrgEMmotPqfD","standard","1","89","LP","5.5010771219302","871.731","877.235","877.58","5.849","0.345","3","264",""
"90","R_3J9SrgEMmotPqfD","standard","2","1","LP","5.5010771219302","0","5.508","5.981","5.981","0.473","3","267",NA
"91","R_3J9SrgEMmotPqfD","standard","2","2","LP","0.264713485566566","6.987","7.259","7.666","0.679","0.407","3","270",NA
"92","R_3J9SrgEMmotPqfD","standard","2","3","LP","1.25738905644119","8.675","9.939","10.3","1.625","0.361","3","273",NA
"93","R_3J9SrgEMmotPqfD","standard","2","4","LP","19.8235243429556","11.307","NaN","21.6","10.293","NaN","0","273",NA
"94","R_3J9SrgEMmotPqfD","standard","2","5","LP","1.25738905644119","22.604","23.867","24.251","1.647","0.384","3","276",NA
"95","R_3J9SrgEMmotPqfD","standard","2","6","LP","13.0392072382594","25.259","38.299","38.721","13.462","0.422","3","279",NA
"96","R_3J9SrgEMmotPqfD","standard","2","7","LP","5.5010771219302","39.723","45.227","45.597","5.874","0.37","3","282",NA
"97","R_3J9SrgEMmotPqfD","standard","2","8","LP","8.51632916846187","46.603","55.123","55.602","8.999","0.479","3","285",NA
"98","R_3J9SrgEMmotPqfD","standard","2","9","LP","2.15079707022835","56.603","58.755","59.171","2.568","0.416","3","288",NA
"99","R_3J9SrgEMmotPqfD","standard","2","10","LP","3.49090909090909","60.179","63.675","64.031","3.852","0.356","3","291",NA
"100","R_3J9SrgEMmotPqfD","standard","2","11","LP","2.15079707022835","65.035","67.187","67.64","2.605","0.453","3","294",NA
"101","R_3J9SrgEMmotPqfD","standard","2","12","LP","13.0392072382594","68.643","81.683","82.114","13.471","0.431","3","297",NA
"102","R_3J9SrgEMmotPqfD","standard","2","13","LP","30","83.115","NaN","96.88","13.765","NaN","0","297",NA
"103","R_3J9SrgEMmotPqfD","standard","2","14","LP","3.49090909090909","97.883","101.379","101.807","3.924","0.428","3","300",NA
"104","R_3J9SrgEMmotPqfD","standard","2","15","LP","0.264713485566566","102.811","103.083","103.547","0.736","0.464","3","303",NA
"105","R_3J9SrgEMmotPqfD","standard","2","16","LP","1.25738905644119","104.555","105.817","106.176","1.621","0.359","3","306",NA
"106","R_3J9SrgEMmotPqfD","standard","2","17","LP","19.8235243429556","107.179","NaN","123.719","16.54","NaN","0","306",NA
"107","R_3J9SrgEMmotPqfD","standard","2","18","LP","30","124.723","NaN","142.992","18.269","NaN","0","306",NA
"108","R_3J9SrgEMmotPqfD","standard","2","19","LP","8.51632916846187","143.995","152.515","152.997","9.002","0.482","3","309",NA
"109","R_3J9SrgEMmotPqfD","standard","2","20","LP","0.264713485566566","154.003","154.275","154.758","0.755","0.483","3","312",NA
"110","R_3J9SrgEMmotPqfD","standard","2","21","LP","0.264713485566566","155.763","156.036","156.371","0.608","0.335","3","315",NA
"111","R_3J9SrgEMmotPqfD","standard","2","22","LP","1.25738905644119","157.379","158.643","158.997","1.618","0.354","3","318",NA
"112","R_3J9SrgEMmotPqfD","standard","2","23","LP","2.15079707022835","160.003","162.155","162.577","2.574","0.422","3","321",NA
"113","R_3J9SrgEMmotPqfD","standard","2","24","LP","13.0392072382594","163.579","176.624","176.99","13.411","0.366","3","324",NA
"114","R_3J9SrgEMmotPqfD","standard","2","25","LP","13.0392072382594","177.995","191.043","191.467","13.472","0.424","3","327",NA
"115","R_3J9SrgEMmotPqfD","standard","2","26","LP","30","192.475","NaN","208.746","16.271","NaN","0","327",NA
"116","R_3J9SrgEMmotPqfD","standard","2","27","LP","30","209.747","NaN","225.499","15.752","NaN","0","327",NA
"117","R_3J9SrgEMmotPqfD","standard","2","28","LP","13.0392072382594","226.507","239.547","240.027","13.52","0.48","3","330",NA
"118","R_3J9SrgEMmotPqfD","standard","2","29","LP","1.25738905644119","241.035","242.299","242.621","1.586","0.322","3","333",NA
"119","R_3J9SrgEMmotPqfD","standard","2","30","LP","19.8235243429556","243.627","NaN","261.133","17.506","NaN","0","333",NA
"120","R_3J9SrgEMmotPqfD","standard","2","31","LP","13.0392072382594","262.139","NaN","272.714","10.575","NaN","0","333",NA
"121","R_3J9SrgEMmotPqfD","standard","2","32","LP","2.15079707022835","273.723","275.875","276.319","2.596","0.444","3","336",NA
"122","R_3J9SrgEMmotPqfD","standard","2","33","LP","2.15079707022835","277.323","279.475","279.827","2.504","0.352","3","339",NA
"123","R_3J9SrgEMmotPqfD","standard","2","34","LP","5.5010771219302","280.835","286.339","286.736","5.901","0.397","3","342",NA
"124","R_3J9SrgEMmotPqfD","standard","2","35","LP","2.15079707022835","287.739","289.891","290.373","2.634","0.482","3","345",NA
"125","R_3J9SrgEMmotPqfD","standard","2","36","LP","5.5010771219302","291.379","296.883","297.217","5.838","0.334","3","348",NA
"126","R_3J9SrgEMmotPqfD","standard","2","37","LP","13.0392072382594","298.225","311.267","311.773","13.548","0.506","3","351",NA
"127","R_3J9SrgEMmotPqfD","standard","2","38","LP","2.15079707022835","312.779","314.931","315.352","2.573","0.421","3","354",NA
"128","R_3J9SrgEMmotPqfD","standard","2","39","LP","3.49090909090909","316.355","319.851","320.298","3.943","0.447","3","357",NA
"129","R_3J9SrgEMmotPqfD","standard","2","40","LP","8.51632916846187","321.31","329.835","330.353","9.043","0.518","3","360",NA
"130","R_3J9SrgEMmotPqfD","standard","2","41","LP","2.15079707022835","331.355","333.51","333.847","2.492","0.337","3","363",NA
"131","R_3J9SrgEMmotPqfD","standard","2","42","LP","13.0392072382594","334.851","NaN","346.139","11.288","NaN","0","363",NA
"132","R_3J9SrgEMmotPqfD","standard","2","43","LP","2.15079707022835","347.147","349.299","349.703","2.556","0.404","3","366",NA
"133","R_3J9SrgEMmotPqfD","standard","2","44","LP","2.15079707022835","350.708","352.859","353.265","2.557","0.406","3","369",NA
"134","R_3J9SrgEMmotPqfD","standard","2","45","LP","8.51632916846187","354.267","362.787","363.161","8.894","0.374","3","372",NA
"135","R_3J9SrgEMmotPqfD","standard","2","46","LP","0.264713485566566","364.163","364.435","365.052","0.889","0.617","3","375",NA
"136","R_3J9SrgEMmotPqfD","standard","2","47","LP","1.25738905644119","366.059","367.323","367.703","1.644","0.38","3","378",NA
"137","R_3J9SrgEMmotPqfD","standard","2","48","LP","2.15079707022835","368.707","370.859","371.175","2.468","0.316","3","381",NA
"138","R_3J9SrgEMmotPqfD","standard","2","49","LP","0.661783713916415","372.179","372.843","373.2","1.021","0.357","3","384",NA
"139","R_3J9SrgEMmotPqfD","standard","2","50","LP","30","374.204","NaN","390.271","16.067","NaN","0","384",NA
"140","R_3J9SrgEMmotPqfD","standard","2","51","LP","0.264713485566566","391.275","391.547","391.878","0.603","0.331","3","387",NA
"141","R_3J9SrgEMmotPqfD","standard","2","52","LP","8.51632916846187","392.883","NaN","400.21","7.327","NaN","0","387",NA
"142","R_3J9SrgEMmotPqfD","standard","2","53","LP","0.264713485566566","401.212","401.483","401.893","0.681","0.41","3","390",NA
"143","R_3J9SrgEMmotPqfD","standard","2","54","LP","8.51632916846187","402.899","NaN","409.351","6.452","NaN","0","390",NA
"144","R_3J9SrgEMmotPqfD","standard","2","55","LP","3.49090909090909","410.355","413.851","414.196","3.841","0.345","3","393",NA
"145","R_3J9SrgEMmotPqfD","standard","2","56","LP","5.5010771219302","415.203","420.71","421.117","5.914","0.407","3","396",NA
"146","R_3J9SrgEMmotPqfD","standard","2","57","LP","30","422.123","NaN","431.686","9.563","NaN","0","396",NA
"147","R_3J9SrgEMmotPqfD","standard","2","58","LP","19.8235243429556","432.691","NaN","444.846","12.155","NaN","0","396",NA
"148","R_3J9SrgEMmotPqfD","standard","2","59","LP","5.5010771219302","445.851","451.355","451.741","5.89","0.386","3","399",NA
"149","R_3J9SrgEMmotPqfD","standard","2","60","LP","3.49090909090909","452.747","456.243","456.594","3.847","0.351","3","402",NA
"150","R_3J9SrgEMmotPqfD","standard","2","61","LP","13.0392072382594","457.603","NaN","464.987","7.384","NaN","0","402",NA
"151","R_3J9SrgEMmotPqfD","standard","2","62","LP","19.8235243429556","465.995","NaN","473.203","7.208","NaN","0","402",NA
"152","R_3J9SrgEMmotPqfD","standard","2","63","LP","3.49090909090909","474.205","477.699","478.072","3.867","0.373","3","405",NA
"153","R_3J9SrgEMmotPqfD","standard","2","64","LP","0.661783713916415","479.075","479.739","480.11","1.035","0.371","3","408",NA
"154","R_3J9SrgEMmotPqfD","standard","2","65","LP","30","481.115","NaN","489.926","8.811","NaN","0","408",NA
"155","R_3J9SrgEMmotPqfD","standard","2","66","LP","0.661783713916415","490.931","491.595","491.981","1.05","0.386","3","411",NA
"156","R_3J9SrgEMmotPqfD","standard","2","67","LP","8.51632916846187","492.987","NaN","496.579","3.592","NaN","0","411",NA
"157","R_3J9SrgEMmotPqfD","standard","2","68","LP","0.661783713916415","497.587","498.251","498.66","1.073","0.409","3","414",NA
"158","R_3J9SrgEMmotPqfD","standard","2","69","LP","2.15079707022835","499.667","501.819","502.221","2.554","0.402","3","417",NA
"159","R_3J9SrgEMmotPqfD","standard","2","70","LP","5.5010771219302","503.227","NaN","507.039","3.812","NaN","0","417",NA
"160","R_3J9SrgEMmotPqfD","standard","2","71","LP","19.8235243429556","508.043","NaN","512.137","4.094","NaN","0","417",NA
"161","R_3J9SrgEMmotPqfD","standard","2","72","LP","5.5010771219302","513.139","518.643","519.077","5.938","0.434","3","420",NA
"162","R_3J9SrgEMmotPqfD","standard","2","73","LP","3.49090909090909","520.083","523.579","523.924","3.841","0.345","3","423",NA
"163","R_3J9SrgEMmotPqfD","standard","2","74","LP","0.661783713916415","524.93","525.595","525.911","0.981","0.316","3","426",NA
"164","R_3J9SrgEMmotPqfD","standard","2","75","LP","3.49090909090909","526.915","530.411","530.807","3.892","0.396","3","429",NA
"165","R_3J9SrgEMmotPqfD","standard","2","76","LP","1.25738905644119","531.808","533.071","533.457","1.649","0.386","3","432",NA
"166","R_3J9SrgEMmotPqfD","standard","2","77","LP","0.264713485566566","534.467","534.739","535.118","0.651","0.379","3","435",NA
"167","R_3J9SrgEMmotPqfD","standard","2","78","LP","5.5010771219302","536.123","541.627","542.066","5.943","0.439","3","438",NA
"168","R_3J9SrgEMmotPqfD","standard","2","79","LP","5.5010771219302","543.075","548.579","549.066","5.991","0.487","3","441",NA
"169","R_3J9SrgEMmotPqfD","standard","2","80","LP","30","550.075","NaN","557.001","6.926","NaN","0","441",NA
"170","R_3J9SrgEMmotPqfD","standard","2","81","LP","1.25738905644119","558.004","559.267","559.634","1.63","0.367","3","444",NA
"171","R_3J9SrgEMmotPqfD","standard","2","82","LP","0.661783713916415","560.643","561.309","561.8","1.157","0.491","3","447",NA
"172","R_3J9SrgEMmotPqfD","standard","2","83","LP","8.51632916846187","562.805","NaN","569.887","7.082","NaN","0","447",NA
"173","R_3J9SrgEMmotPqfD","standard","2","84","LP","5.5010771219302","570.891","576.395","576.816","5.925","0.421","3","450",NA
"174","R_3J9SrgEMmotPqfD","standard","2","85","LP","0.661783713916415","577.819","578.486","578.88","1.061","0.394","3","453",NA
"175","R_3J9SrgEMmotPqfD","standard","2","86","LP","0.661783713916415","579.883","580.547","580.946","1.063","0.399","3","456",NA
"176","R_3J9SrgEMmotPqfD","standard","2","87","LP","3.49090909090909","581.955","585.451","586.008","4.053","0.557","3","459",NA
"177","R_3J9SrgEMmotPqfD","standard","2","88","LP","1.25738905644119","587.013","588.275","588.657","1.644","0.382","3","462",NA
"178","R_3J9SrgEMmotPqfD","standard","2","89","LP","0.264713485566566","589.659","589.931","590.307","0.648","0.376","3","465",NA
"179","R_3J9SrgEMmotPqfD","standard","2","90","LP","19.8235243429556","591.308","NaN","594.415","3.107","NaN","0","465",NA
"180","R_3J9SrgEMmotPqfD","standard","2","91","LP","13.0392072382594","595.419","NaN","598.549","3.13","NaN","0","465",NA
