"","subject_id","condition","n_block","n_trialIdx","f_timing_condition","n_scheduled_delay","n_trial_start_time","n_rewarded_time_fin","n_sell_time_fin","n_time_waited_fin","RT_fin","n_trial_earnings_fin","n_total_earnings_fin","keypress_times"
"1","R_3Muqox3Nfy1n935","standard","1","1","HP","16","0.003","16.013","16.327","16.324","0.314","3","3",""
"2","R_3Muqox3Nfy1n935","standard","1","2","HP","6","17.331","23.337","23.683","6.352","0.346","3","6",""
"3","R_3Muqox3Nfy1n935","standard","1","3","HP","14","24.69","38.697","39.007","14.317","0.31","3","9",""
"4","R_3Muqox3Nfy1n935","standard","1","4","HP","14","40.013","54.018","54.348","14.335","0.33","3","12",""
"5","R_3Muqox3Nfy1n935","standard","1","5","HP","14","55.355","69.362","69.649","14.294","0.287","3","15",""
"6","R_3Muqox3Nfy1n935","standard","1","6","HP","2","70.658","72.665","72.967","2.309","0.302","3","18",""
"7","R_3Muqox3Nfy1n935","standard","1","7","HP","4","73.97","77.977","78.258","4.288","0.281","3","21",""
"8","R_3Muqox3Nfy1n935","standard","1","8","HP","14","79.266","93.273","93.566","14.3","0.293","3","24",""
"9","R_3Muqox3Nfy1n935","standard","1","9","HP","18","94.57","112.578","112.894","18.324","0.316","3","27",""
"10","R_3Muqox3Nfy1n935","standard","1","10","HP","20","113.898","133.906","134.296","20.398","0.39","3","30",""
"11","R_3Muqox3Nfy1n935","standard","1","11","HP","12","135.298","147.305","147.629","12.331","0.324","3","33",""
"12","R_3Muqox3Nfy1n935","standard","1","12","HP","2","148.643","150.649","151.012","2.369","0.363","3","36",""
"13","R_3Muqox3Nfy1n935","standard","1","13","HP","8","152.018","160.025","160.314","8.296","0.289","3","39",""
"14","R_3Muqox3Nfy1n935","standard","1","14","HP","12","161.322","173.329","173.582","12.26","0.253","3","42",""
"15","R_3Muqox3Nfy1n935","standard","1","15","HP","4","174.586","178.594","178.849","4.263","0.255","3","45",""
"16","R_3Muqox3Nfy1n935","standard","1","16","HP","12","179.85","191.858","192.368","12.518","0.51","3","45","10268"
"17","R_3Muqox3Nfy1n935","standard","1","17","HP","12","193.37","205.378","205.684","12.314","0.306","3","48",""
"18","R_3Muqox3Nfy1n935","standard","1","18","HP","12","206.69","218.697","219.011","12.321","0.314","3","51",""
"19","R_3Muqox3Nfy1n935","standard","1","19","HP","4","220.013","224.018","224.425","4.412","0.407","3","54",""
"20","R_3Muqox3Nfy1n935","standard","1","20","HP","18","225.434","243.441","243.729","18.295","0.288","3","57",""
"21","R_3Muqox3Nfy1n935","standard","1","21","HP","10","244.739","254.743","255.104","10.365","0.361","3","60",""
"22","R_3Muqox3Nfy1n935","standard","1","22","HP","4","256.107","260.108","260.446","4.339","0.338","3","63",""
"23","R_3Muqox3Nfy1n935","standard","1","23","HP","16","261.45","277.457","277.757","16.307","0.3","3","66",""
"24","R_3Muqox3Nfy1n935","standard","1","24","HP","2","278.762","280.77","281.114","2.352","0.344","3","69",""
"25","R_3Muqox3Nfy1n935","standard","1","25","HP","20","282.122","302.127","302.462","20.34","0.335","3","72",""
"26","R_3Muqox3Nfy1n935","standard","1","26","HP","6","303.466","309.474","309.817","6.351","0.343","3","75",""
"27","R_3Muqox3Nfy1n935","standard","1","27","HP","8","310.826","318.834","319.209","8.383","0.375","3","78",""
"28","R_3Muqox3Nfy1n935","standard","1","28","HP","2","320.213","322.217","322.58","2.367","0.363","3","81",""
"29","R_3Muqox3Nfy1n935","standard","1","29","HP","8","323.586","331.6","331.962","8.376","0.362","3","84",""
"30","R_3Muqox3Nfy1n935","standard","1","30","HP","20","332.97","352.977","353.332","20.362","0.355","3","87",""
"31","R_3Muqox3Nfy1n935","standard","1","31","HP","4","354.338","358.345","358.648","4.31","0.303","3","90",""
"32","R_3Muqox3Nfy1n935","standard","1","32","HP","12","359.652","371.658","372.006","12.354","0.348","3","93",""
"33","R_3Muqox3Nfy1n935","standard","1","33","HP","20","373.012","393.012","393.372","20.36","0.36","3","96",""
"34","R_3Muqox3Nfy1n935","standard","1","34","HP","18","394.378","412.386","412.713","18.335","0.327","3","99",""
"35","R_3Muqox3Nfy1n935","standard","1","35","HP","4","413.722","417.73","418.409","4.687","0.679","3","102",""
"36","R_3Muqox3Nfy1n935","standard","1","36","HP","4","419.412","423.413","423.8","4.388","0.387","3","105",""
"37","R_3Muqox3Nfy1n935","standard","1","37","HP","12","424.802","436.812","437.164","12.362","0.352","3","108",""
"38","R_3Muqox3Nfy1n935","standard","1","38","HP","6","438.17","444.177","444.498","6.328","0.321","3","111",""
"39","R_3Muqox3Nfy1n935","standard","1","39","HP","18","445.506","463.508","463.942","18.436","0.434","3","114",""
"40","R_3Muqox3Nfy1n935","standard","1","40","HP","16","464.946","480.953","481.26","16.314","0.307","3","117",""
"41","R_3Muqox3Nfy1n935","standard","1","41","HP","2","482.266","484.274","484.574","2.308","0.3","3","120",""
"42","R_3Muqox3Nfy1n935","standard","1","42","HP","4","485.578","489.585","489.888","4.31","0.303","3","123",""
"43","R_3Muqox3Nfy1n935","standard","1","43","HP","10","490.89","500.898","501.214","10.324","0.316","3","126",""
"44","R_3Muqox3Nfy1n935","standard","1","44","HP","20","502.216","522.217","522.536","20.32","0.319","3","129",""
"45","R_3Muqox3Nfy1n935","standard","1","45","HP","16","523.538","539.546","539.86","16.322","0.314","3","132",""
"46","R_3Muqox3Nfy1n935","standard","1","46","HP","8","540.866","548.874","549.184","8.318","0.31","3","135",""
"47","R_3Muqox3Nfy1n935","standard","1","47","HP","10","550.186","560.2","560.652","10.466","0.452","3","138",""
"48","R_3Muqox3Nfy1n935","standard","1","48","HP","2","561.658","563.666","563.968","2.31","0.302","3","141",""
"49","R_3Muqox3Nfy1n935","standard","1","49","HP","8","564.97","572.977","573.277","8.307","0.3","3","144",""
"50","R_3Muqox3Nfy1n935","standard","1","50","HP","20","574.282","594.289","594.584","20.302","0.295","3","147",""
"51","R_3Muqox3Nfy1n935","standard","1","51","HP","16","595.586","611.593","611.927","16.341","0.334","3","150",""
"52","R_3Muqox3Nfy1n935","standard","1","52","HP","20","612.93","632.937","633.243","20.313","0.306","3","153",""
"53","R_3Muqox3Nfy1n935","standard","1","53","HP","20","634.25","654.257","654.551","20.301","0.294","3","156",""
"54","R_3Muqox3Nfy1n935","standard","1","54","HP","4","655.554","659.562","659.815","4.261","0.253","3","159",""
"55","R_3Muqox3Nfy1n935","standard","1","55","HP","6","660.818","666.82","667.15","6.332","0.33","3","162",""
"56","R_3Muqox3Nfy1n935","standard","1","56","HP","16","668.154","684.162","684.669","16.515","0.507","3","165",""
"57","R_3Muqox3Nfy1n935","standard","1","57","HP","10","685.674","695.681","695.987","10.313","0.306","3","168",""
"58","R_3Muqox3Nfy1n935","standard","1","58","HP","4","696.994","701.001","701.342","4.348","0.341","3","171",""
"59","R_3Muqox3Nfy1n935","standard","1","59","HP","4","702.346","706.355","706.678","4.332","0.323","3","174",""
"60","R_3Muqox3Nfy1n935","standard","1","60","HP","16","707.682","723.689","723.993","16.311","0.304","3","177",""
"61","R_3Muqox3Nfy1n935","standard","1","61","HP","10","725.002","735.01","735.317","10.315","0.307","3","180",""
"62","R_3Muqox3Nfy1n935","standard","1","62","HP","8","736.322","744.329","744.673","8.351","0.344","3","183",""
"63","R_3Muqox3Nfy1n935","standard","1","63","HP","4","745.682","749.689","750.082","4.4","0.393","3","186",""
"64","R_3Muqox3Nfy1n935","standard","1","64","HP","8","751.091","759.097","759.412","8.321","0.315","3","189",""
"65","R_3Muqox3Nfy1n935","standard","1","65","HP","14","760.413","774.418","774.733","14.32","0.315","3","192",""
"66","R_3Muqox3Nfy1n935","standard","1","66","HP","6","775.738","781.746","782.057","6.319","0.311","3","195",""
"67","R_3Muqox3Nfy1n935","standard","1","67","HP","4","783.068","787.081","787.506","4.438","0.425","3","198",""
"68","R_3Muqox3Nfy1n935","standard","1","68","HP","8","788.509","796.514","796.808","8.299","0.294","3","201",""
"69","R_3Muqox3Nfy1n935","standard","1","69","HP","14","797.811","811.812","812.121","14.31","0.309","3","204",""
"70","R_3Muqox3Nfy1n935","standard","1","70","HP","20","813.125","833.129","833.419","20.294","0.29","3","207",""
"71","R_3Muqox3Nfy1n935","standard","1","71","HP","16","834.426","850.434","850.8","16.374","0.366","3","210",""
"72","R_3Muqox3Nfy1n935","standard","1","72","HP","6","851.811","857.813","858.133","6.322","0.32","3","213",""
"73","R_3Muqox3Nfy1n935","standard","1","73","HP","14","859.138","873.143","873.472","14.334","0.329","3","216",""
"74","R_3Muqox3Nfy1n935","standard","1","74","HP","18","874.474","892.482","892.784","18.31","0.302","3","219",""
"75","R_3Muqox3Nfy1n935","standard","2","1","LP","1.25738905644119","0.001","NaN","0.783","0.782","NaN","0","219",NA
"76","R_3Muqox3Nfy1n935","standard","2","2","LP","30","1.792","NaN","2.99","1.198","NaN","0","219",NA
"77","R_3Muqox3Nfy1n935","standard","2","3","LP","5.5010771219302","4","NaN","4.234","0.234","NaN","0","219",NA
"78","R_3Muqox3Nfy1n935","standard","2","4","LP","30","5.24","NaN","5.475","0.235","NaN","0","219",NA
"79","R_3Muqox3Nfy1n935","standard","2","5","LP","0.264713485566566","6.48","6.752","7.072","0.592","0.32","3","222",NA
"80","R_3Muqox3Nfy1n935","standard","2","6","LP","8.51632916846187","8.079","NaN","8.445","0.366","NaN","0","222",NA
"81","R_3Muqox3Nfy1n935","standard","2","7","LP","13.0392072382594","9.448","NaN","9.521","0.073","NaN","0","222",NA
"82","R_3Muqox3Nfy1n935","standard","2","8","LP","3.49090909090909","10.527","NaN","10.703","0.176","NaN","0","222",NA
"83","R_3Muqox3Nfy1n935","standard","2","9","LP","19.8235243429556","11.706","NaN","12.033","0.327","NaN","0","222",NA
"84","R_3Muqox3Nfy1n935","standard","2","10","LP","13.0392072382594","13.04","NaN","13.197","0.157","NaN","0","222",NA
"85","R_3Muqox3Nfy1n935","standard","2","11","LP","0.661783713916415","14.2","NaN","14.264","0.064","NaN","0","222",NA
"86","R_3Muqox3Nfy1n935","standard","2","12","LP","8.51632916846187","15.271","NaN","15.306","0.035","NaN","0","222",NA
"87","R_3Muqox3Nfy1n935","standard","2","13","LP","3.49090909090909","16.308","NaN","16.359","0.051","NaN","0","222",NA
"88","R_3Muqox3Nfy1n935","standard","2","14","LP","8.51632916846187","17.368","NaN","17.457","0.089","NaN","0","222",NA
"89","R_3Muqox3Nfy1n935","standard","2","15","LP","0.264713485566566","18.463","NaN","18.507","0.044","NaN","0","222",NA
"90","R_3Muqox3Nfy1n935","standard","2","16","LP","0.661783713916415","19.512","NaN","19.636","0.124","NaN","0","222",NA
"91","R_3Muqox3Nfy1n935","standard","2","17","LP","13.0392072382594","20.64","NaN","20.739","0.099","NaN","0","222",NA
"92","R_3Muqox3Nfy1n935","standard","2","18","LP","1.25738905644119","21.743","NaN","21.878","0.135","NaN","0","222",NA
"93","R_3Muqox3Nfy1n935","standard","2","19","LP","1.25738905644119","22.879","NaN","22.964","0.085","NaN","0","222",NA
"94","R_3Muqox3Nfy1n935","standard","2","20","LP","30","23.967","NaN","24","0.033","NaN","0","222",NA
"95","R_3Muqox3Nfy1n935","standard","2","21","LP","19.8235243429556","25.011","NaN","25.079","0.068","NaN","0","222",NA
"96","R_3Muqox3Nfy1n935","standard","2","22","LP","0.264713485566566","26.088","NaN","26.119","0.031","NaN","0","222",NA
"97","R_3Muqox3Nfy1n935","standard","2","23","LP","3.49090909090909","27.125","NaN","27.307","0.182","NaN","0","222",NA
"98","R_3Muqox3Nfy1n935","standard","2","24","LP","0.264713485566566","28.311","NaN","28.411","0.1","NaN","0","222",NA
"99","R_3Muqox3Nfy1n935","standard","2","25","LP","0.264713485566566","29.416","NaN","29.612","0.196","NaN","0","222",NA
"100","R_3Muqox3Nfy1n935","standard","2","26","LP","13.0392072382594","30.616","NaN","30.784","0.168","NaN","0","222",NA
"101","R_3Muqox3Nfy1n935","standard","2","27","LP","0.661783713916415","31.791","NaN","31.972","0.181","NaN","0","222",NA
"102","R_3Muqox3Nfy1n935","standard","2","28","LP","3.49090909090909","32.976","NaN","33.11","0.134","NaN","0","222",NA
"103","R_3Muqox3Nfy1n935","standard","2","29","LP","1.25738905644119","34.117","NaN","34.181","0.064","NaN","0","222",NA
"104","R_3Muqox3Nfy1n935","standard","2","30","LP","13.0392072382594","35.183","NaN","35.288","0.105","NaN","0","222",NA
"105","R_3Muqox3Nfy1n935","standard","2","31","LP","0.264713485566566","36.296","NaN","36.36","0.064","NaN","0","222",NA
"106","R_3Muqox3Nfy1n935","standard","2","32","LP","8.51632916846187","37.367","NaN","37.412","0.045","NaN","0","222",NA
"107","R_3Muqox3Nfy1n935","standard","2","33","LP","5.5010771219302","38.415","NaN","38.575","0.16","NaN","0","222",NA
"108","R_3Muqox3Nfy1n935","standard","2","34","LP","0.264713485566566","39.584","NaN","39.701","0.117","NaN","0","222",NA
"109","R_3Muqox3Nfy1n935","standard","2","35","LP","5.5010771219302","40.704","NaN","40.852","0.148","NaN","0","222",NA
"110","R_3Muqox3Nfy1n935","standard","2","36","LP","19.8235243429556","41.855","NaN","41.88","0.025","NaN","0","222",NA
"111","R_3Muqox3Nfy1n935","standard","2","37","LP","19.8235243429556","42.887","NaN","42.905","0.018","NaN","0","222",NA
"112","R_3Muqox3Nfy1n935","standard","2","38","LP","1.25738905644119","43.906","NaN","44.053","0.147","NaN","0","222",NA
"113","R_3Muqox3Nfy1n935","standard","2","39","LP","8.51632916846187","45.055","NaN","45.281","0.226","NaN","0","222",NA
"114","R_3Muqox3Nfy1n935","standard","2","40","LP","5.5010771219302","46.287","NaN","46.513","0.226","NaN","0","222",NA
"115","R_3Muqox3Nfy1n935","standard","2","41","LP","0.661783713916415","47.519","NaN","47.764","0.245","NaN","0","222",NA
"116","R_3Muqox3Nfy1n935","standard","2","42","LP","13.0392072382594","48.768","NaN","48.968","0.2","NaN","0","222",NA
"117","R_3Muqox3Nfy1n935","standard","2","43","LP","3.49090909090909","49.976","NaN","50.147","0.171","NaN","0","222",NA
"118","R_3Muqox3Nfy1n935","standard","2","44","LP","30","51.151","NaN","51.337","0.186","NaN","0","222",NA
"119","R_3Muqox3Nfy1n935","standard","2","45","LP","3.49090909090909","52.344","NaN","52.751","0.407","NaN","0","222",NA
"120","R_3Muqox3Nfy1n935","standard","2","46","LP","3.49090909090909","53.76","NaN","53.928","0.168","NaN","0","222",NA
"121","R_3Muqox3Nfy1n935","standard","2","47","LP","19.8235243429556","54.934","NaN","55.096","0.162","NaN","0","222",NA
"122","R_3Muqox3Nfy1n935","standard","2","48","LP","5.5010771219302","56.103","NaN","56.259","0.156","NaN","0","222",NA
"123","R_3Muqox3Nfy1n935","standard","2","49","LP","30","57.264","NaN","57.397","0.133","NaN","0","222",NA
"124","R_3Muqox3Nfy1n935","standard","2","50","LP","0.264713485566566","58.4","58.671","59.065","0.665","0.394","3","225",NA
"125","R_3Muqox3Nfy1n935","standard","2","51","LP","30","60.072","NaN","60.259","0.187","NaN","0","225",NA
"126","R_3Muqox3Nfy1n935","standard","2","52","LP","30","61.263","NaN","61.373","0.11","NaN","0","225",NA
"127","R_3Muqox3Nfy1n935","standard","2","53","LP","3.49090909090909","62.375","NaN","62.445","0.07","NaN","0","225",NA
"128","R_3Muqox3Nfy1n935","standard","2","54","LP","3.49090909090909","63.447","NaN","63.515","0.068","NaN","0","225",NA
"129","R_3Muqox3Nfy1n935","standard","2","55","LP","19.8235243429556","64.519","NaN","64.582","0.063","NaN","0","225",NA
"130","R_3Muqox3Nfy1n935","standard","2","56","LP","3.49090909090909","65.584","NaN","65.851","0.267","NaN","0","225",NA
"131","R_3Muqox3Nfy1n935","standard","2","57","LP","19.8235243429556","66.856","NaN","66.91","0.054","NaN","0","225",NA
"132","R_3Muqox3Nfy1n935","standard","2","58","LP","5.5010771219302","67.911","NaN","67.932","0.021","NaN","0","225",NA
"133","R_3Muqox3Nfy1n935","standard","2","59","LP","1.25738905644119","68.935","NaN","69.078","0.143","NaN","0","225",NA
"134","R_3Muqox3Nfy1n935","standard","2","60","LP","5.5010771219302","70.079","NaN","70.139","0.06","NaN","0","225",NA
"135","R_3Muqox3Nfy1n935","standard","2","61","LP","5.5010771219302","71.143","NaN","71.711","0.568","NaN","0","225",NA
"136","R_3Muqox3Nfy1n935","standard","2","62","LP","8.51632916846187","72.717","NaN","73.044","0.327","NaN","0","225",NA
"137","R_3Muqox3Nfy1n935","standard","2","63","LP","5.5010771219302","74.048","NaN","74.268","0.22","NaN","0","225",NA
"138","R_3Muqox3Nfy1n935","standard","2","64","LP","8.51632916846187","75.272","NaN","75.371","0.099","NaN","0","225",NA
"139","R_3Muqox3Nfy1n935","standard","2","65","LP","5.5010771219302","76.376","NaN","76.48","0.104","NaN","0","225",NA
"140","R_3Muqox3Nfy1n935","standard","2","66","LP","19.8235243429556","77.488","NaN","77.56","0.072","NaN","0","225",NA
"141","R_3Muqox3Nfy1n935","standard","2","67","LP","19.8235243429556","78.567","NaN","78.67","0.103","NaN","0","225",NA
"142","R_3Muqox3Nfy1n935","standard","2","68","LP","8.51632916846187","79.672","NaN","79.793","0.121","NaN","0","225",NA
"143","R_3Muqox3Nfy1n935","standard","2","69","LP","13.0392072382594","80.799","NaN","81.206","0.407","NaN","0","225",NA
"144","R_3Muqox3Nfy1n935","standard","2","70","LP","0.264713485566566","82.21","82.479","82.529","0.319","0.05","3","228",NA
"145","R_3Muqox3Nfy1n935","standard","2","71","LP","8.51632916846187","83.535","NaN","83.683","0.148","NaN","0","228",NA
"146","R_3Muqox3Nfy1n935","standard","2","72","LP","30","84.688","NaN","84.76","0.072","NaN","0","228",NA
"147","R_3Muqox3Nfy1n935","standard","2","73","LP","8.51632916846187","85.768","NaN","85.8","0.032","NaN","0","228",NA
"148","R_3Muqox3Nfy1n935","standard","2","74","LP","13.0392072382594","86.808","NaN","87.087","0.279","NaN","0","228",NA
"149","R_3Muqox3Nfy1n935","standard","2","75","LP","1.25738905644119","88.096","NaN","88.463","0.367","NaN","0","228",NA
"150","R_3Muqox3Nfy1n935","standard","2","76","LP","13.0392072382594","89.472","NaN","89.717","0.245","NaN","0","228",NA
"151","R_3Muqox3Nfy1n935","standard","2","77","LP","1.25738905644119","90.719","NaN","91.015","0.296","NaN","0","228",NA
"152","R_3Muqox3Nfy1n935","standard","2","78","LP","8.51632916846187","92.02","NaN","92.261","0.241","NaN","0","228",NA
"153","R_3Muqox3Nfy1n935","standard","2","79","LP","8.51632916846187","93.264","NaN","93.468","0.204","NaN","0","228",NA
"154","R_3Muqox3Nfy1n935","standard","2","80","LP","30","94.471","NaN","94.57","0.099","NaN","0","228",NA
"155","R_3Muqox3Nfy1n935","standard","2","81","LP","0.661783713916415","95.576","NaN","96.095","0.519","NaN","0","228",NA
"156","R_3Muqox3Nfy1n935","standard","2","82","LP","8.51632916846187","97.104","NaN","97.474","0.37","NaN","0","228",NA
"157","R_3Muqox3Nfy1n935","standard","2","83","LP","1.25738905644119","98.479","NaN","98.718","0.239","NaN","0","228",NA
"158","R_3Muqox3Nfy1n935","standard","2","84","LP","3.49090909090909","99.72","NaN","100.048","0.328","NaN","0","228",NA
"159","R_3Muqox3Nfy1n935","standard","2","85","LP","1.25738905644119","101.056","NaN","101.243","0.187","NaN","0","228",NA
"160","R_3Muqox3Nfy1n935","standard","2","86","LP","3.49090909090909","102.248","NaN","102.45","0.202","NaN","0","228",NA
"161","R_3Muqox3Nfy1n935","standard","2","87","LP","13.0392072382594","103.455","NaN","103.689","0.234","NaN","0","228",NA
"162","R_3Muqox3Nfy1n935","standard","2","88","LP","0.661783713916415","104.696","NaN","104.965","0.269","NaN","0","228",NA
"163","R_3Muqox3Nfy1n935","standard","2","89","LP","0.264713485566566","105.967","NaN","106.172","0.205","NaN","0","228",NA
"164","R_3Muqox3Nfy1n935","standard","2","90","LP","0.661783713916415","107.178","NaN","107.401","0.223","NaN","0","228",NA
"165","R_3Muqox3Nfy1n935","standard","2","91","LP","0.264713485566566","108.411","NaN","108.49","0.079","NaN","0","228",NA
"166","R_3Muqox3Nfy1n935","standard","2","92","LP","19.8235243429556","109.496","NaN","109.567","0.071","NaN","0","228",NA
"167","R_3Muqox3Nfy1n935","standard","2","93","LP","3.49090909090909","110.576","NaN","110.736","0.16","NaN","0","228",NA
"168","R_3Muqox3Nfy1n935","standard","2","94","LP","5.5010771219302","111.744","NaN","112.281","0.537","NaN","0","228",NA
"169","R_3Muqox3Nfy1n935","standard","2","95","LP","8.51632916846187","113.288","NaN","113.458","0.17","NaN","0","228",NA
"170","R_3Muqox3Nfy1n935","standard","2","96","LP","0.264713485566566","114.463","NaN","114.699","0.236","NaN","0","228",NA
"171","R_3Muqox3Nfy1n935","standard","2","97","LP","0.661783713916415","115.704","NaN","115.9","0.196","NaN","0","228",NA
"172","R_3Muqox3Nfy1n935","standard","2","98","LP","8.51632916846187","116.904","NaN","117.031","0.127","NaN","0","228",NA
"173","R_3Muqox3Nfy1n935","standard","2","99","LP","2.15079707022835","118.04","NaN","118.36","0.32","NaN","0","228",NA
"174","R_3Muqox3Nfy1n935","standard","2","100","LP","19.8235243429556","119.367","NaN","119.588","0.221","NaN","0","228",NA
"175","R_3Muqox3Nfy1n935","standard","2","101","LP","0.661783713916415","120.592","NaN","120.778","0.186","NaN","0","228",NA
"176","R_3Muqox3Nfy1n935","standard","2","102","LP","8.51632916846187","121.784","NaN","122.09","0.306","NaN","0","228",NA
"177","R_3Muqox3Nfy1n935","standard","2","103","LP","1.25738905644119","123.096","NaN","123.415","0.319","NaN","0","228",NA
"178","R_3Muqox3Nfy1n935","standard","2","104","LP","3.49090909090909","124.419","NaN","124.645","0.226","NaN","0","228",NA
"179","R_3Muqox3Nfy1n935","standard","2","105","LP","19.8235243429556","125.648","NaN","125.846","0.198","NaN","0","228",NA
"180","R_3Muqox3Nfy1n935","standard","2","106","LP","0.264713485566566","126.847","NaN","127.071","0.224","NaN","0","228",NA
"181","R_3Muqox3Nfy1n935","standard","2","107","LP","19.8235243429556","128.079","NaN","128.391","0.312","NaN","0","228",NA
"182","R_3Muqox3Nfy1n935","standard","2","108","LP","30","129.4","NaN","129.56","0.16","NaN","0","228",NA
"183","R_3Muqox3Nfy1n935","standard","2","109","LP","0.661783713916415","130.568","NaN","130.906","0.338","NaN","0","228",NA
"184","R_3Muqox3Nfy1n935","standard","2","110","LP","1.25738905644119","131.912","NaN","132.235","0.323","NaN","0","228",NA
"185","R_3Muqox3Nfy1n935","standard","2","111","LP","8.51632916846187","133.24","NaN","133.438","0.198","NaN","0","228",NA
"186","R_3Muqox3Nfy1n935","standard","2","112","LP","2.15079707022835","134.441","NaN","134.443","0.002","NaN","0","228",NA
"187","R_3Muqox3Nfy1n935","standard","2","113","LP","2.15079707022835","135.448","NaN","136.422","0.974","NaN","0","228",NA
"188","R_3Muqox3Nfy1n935","standard","2","114","LP","3.49090909090909","137.432","NaN","137.83","0.398","NaN","0","228",NA
"189","R_3Muqox3Nfy1n935","standard","2","115","LP","0.661783713916415","138.832","NaN","139.147","0.315","NaN","0","228",NA
"190","R_3Muqox3Nfy1n935","standard","2","116","LP","1.25738905644119","140.152","NaN","140.484","0.332","NaN","0","228",NA
"191","R_3Muqox3Nfy1n935","standard","2","117","LP","1.25738905644119","141.488","NaN","141.818","0.33","NaN","0","228",NA
"192","R_3Muqox3Nfy1n935","standard","2","118","LP","13.0392072382594","142.819","NaN","143.158","0.339","NaN","0","228",NA
"193","R_3Muqox3Nfy1n935","standard","2","119","LP","5.5010771219302","144.16","NaN","144.35","0.19","NaN","0","228",NA
"194","R_3Muqox3Nfy1n935","standard","2","120","LP","13.0392072382594","145.351","NaN","145.657","0.306","NaN","0","228",NA
"195","R_3Muqox3Nfy1n935","standard","2","121","LP","19.8235243429556","146.664","NaN","146.828","0.164","NaN","0","228",NA
"196","R_3Muqox3Nfy1n935","standard","2","122","LP","0.264713485566566","147.832","NaN","148.02","0.188","NaN","0","228",NA
"197","R_3Muqox3Nfy1n935","standard","2","123","LP","2.15079707022835","149.024","NaN","149.341","0.317","NaN","0","228",NA
"198","R_3Muqox3Nfy1n935","standard","2","124","LP","1.25738905644119","150.343","NaN","150.662","0.319","NaN","0","228",NA
"199","R_3Muqox3Nfy1n935","standard","2","125","LP","0.661783713916415","151.664","NaN","151.85","0.186","NaN","0","228",NA
"200","R_3Muqox3Nfy1n935","standard","2","126","LP","3.49090909090909","152.856","NaN","153.015","0.159","NaN","0","228",NA
"201","R_3Muqox3Nfy1n935","standard","2","127","LP","0.264713485566566","154.02","NaN","154.173","0.153","NaN","0","228",NA
"202","R_3Muqox3Nfy1n935","standard","2","128","LP","1.25738905644119","155.175","NaN","155.442","0.267","NaN","0","228",NA
"203","R_3Muqox3Nfy1n935","standard","2","129","LP","2.15079707022835","156.448","NaN","156.485","0.037","NaN","0","228",NA
"204","R_3Muqox3Nfy1n935","standard","2","130","LP","3.49090909090909","157.488","NaN","157.637","0.149","NaN","0","228",NA
"205","R_3Muqox3Nfy1n935","standard","2","131","LP","19.8235243429556","158.64","NaN","158.71","0.07","NaN","0","228",NA
"206","R_3Muqox3Nfy1n935","standard","2","132","LP","19.8235243429556","159.711","NaN","159.842","0.131","NaN","0","228",NA
"207","R_3Muqox3Nfy1n935","standard","2","133","LP","19.8235243429556","160.848","NaN","161.223","0.375","NaN","0","228",NA
"208","R_3Muqox3Nfy1n935","standard","2","134","LP","8.51632916846187","162.232","NaN","162.654","0.422","NaN","0","228",NA
"209","R_3Muqox3Nfy1n935","standard","2","135","LP","13.0392072382594","163.655","NaN","163.976","0.321","NaN","0","228",NA
"210","R_3Muqox3Nfy1n935","standard","2","136","LP","3.49090909090909","164.984","NaN","165.298","0.314","NaN","0","228",NA
"211","R_3Muqox3Nfy1n935","standard","2","137","LP","13.0392072382594","166.304","NaN","166.748","0.444","NaN","0","228",NA
"212","R_3Muqox3Nfy1n935","standard","2","138","LP","19.8235243429556","167.751","NaN","168.184","0.433","NaN","0","228",NA
"213","R_3Muqox3Nfy1n935","standard","2","139","LP","0.264713485566566","169.192","169.464","169.535","0.343","0.071","3","231",NA
"214","R_3Muqox3Nfy1n935","standard","2","140","LP","13.0392072382594","170.536","NaN","170.909","0.373","NaN","0","231",NA
"215","R_3Muqox3Nfy1n935","standard","2","141","LP","8.51632916846187","171.912","NaN","172.265","0.353","NaN","0","231",NA
"216","R_3Muqox3Nfy1n935","standard","2","142","LP","3.49090909090909","173.272","NaN","173.517","0.245","NaN","0","231",NA
"217","R_3Muqox3Nfy1n935","standard","2","143","LP","8.51632916846187","174.52","NaN","174.814","0.294","NaN","0","231",NA
"218","R_3Muqox3Nfy1n935","standard","2","144","LP","19.8235243429556","175.816","NaN","176.139","0.323","NaN","0","231",NA
"219","R_3Muqox3Nfy1n935","standard","2","145","LP","1.25738905644119","177.144","NaN","177.48","0.336","NaN","0","231",NA
"220","R_3Muqox3Nfy1n935","standard","2","146","LP","5.5010771219302","178.488","NaN","178.803","0.315","NaN","0","231",NA
"221","R_3Muqox3Nfy1n935","standard","2","147","LP","3.49090909090909","179.811","NaN","180.126","0.315","NaN","0","231",NA
"222","R_3Muqox3Nfy1n935","standard","2","148","LP","5.5010771219302","181.128","NaN","181.352","0.224","NaN","0","231",NA
"223","R_3Muqox3Nfy1n935","standard","2","149","LP","2.15079707022835","182.36","NaN","182.724","0.364","NaN","0","231",NA
"224","R_3Muqox3Nfy1n935","standard","2","150","LP","8.51632916846187","183.728","NaN","184.421","0.693","NaN","0","231",NA
"225","R_3Muqox3Nfy1n935","standard","2","151","LP","2.15079707022835","185.424","NaN","185.867","0.443","NaN","0","231",NA
"226","R_3Muqox3Nfy1n935","standard","2","152","LP","2.15079707022835","186.872","NaN","188.221","1.349","NaN","0","231",NA
"227","R_3Muqox3Nfy1n935","standard","2","153","LP","13.0392072382594","189.224","NaN","189.543","0.319","NaN","0","231",NA
"228","R_3Muqox3Nfy1n935","standard","2","154","LP","19.8235243429556","190.552","NaN","190.611","0.059","NaN","0","231",NA
"229","R_3Muqox3Nfy1n935","standard","2","155","LP","13.0392072382594","191.616","NaN","191.637","0.021","NaN","0","231",NA
"230","R_3Muqox3Nfy1n935","standard","2","156","LP","13.0392072382594","192.64","NaN","192.642","0.002","NaN","0","231",NA
"231","R_3Muqox3Nfy1n935","standard","2","157","LP","19.8235243429556","193.647","NaN","193.81","0.163","NaN","0","231",NA
"232","R_3Muqox3Nfy1n935","standard","2","158","LP","30","194.812","NaN","195.135","0.323","NaN","0","231",NA
"233","R_3Muqox3Nfy1n935","standard","2","159","LP","8.51632916846187","196.144","NaN","196.338","0.194","NaN","0","231",NA
"234","R_3Muqox3Nfy1n935","standard","2","160","LP","5.5010771219302","197.344","NaN","197.573","0.229","NaN","0","231",NA
"235","R_3Muqox3Nfy1n935","standard","2","161","LP","5.5010771219302","198.576","NaN","198.988","0.412","NaN","0","231",NA
"236","R_3Muqox3Nfy1n935","standard","2","162","LP","3.49090909090909","199.992","NaN","200.398","0.406","NaN","0","231",NA
"237","R_3Muqox3Nfy1n935","standard","2","163","LP","30","201.4","NaN","201.831","0.431","NaN","0","231",NA
"238","R_3Muqox3Nfy1n935","standard","2","164","LP","0.264713485566566","202.838","203.104","203.244","0.406","0.14","3","234",NA
"239","R_3Muqox3Nfy1n935","standard","2","165","LP","5.5010771219302","204.248","NaN","204.281","0.033","NaN","0","234",NA
"240","R_3Muqox3Nfy1n935","standard","2","166","LP","13.0392072382594","205.288","NaN","205.962","0.674","NaN","0","234",NA
"241","R_3Muqox3Nfy1n935","standard","2","167","LP","30","206.968","NaN","207.388","0.42","NaN","0","234",NA
"242","R_3Muqox3Nfy1n935","standard","2","168","LP","1.25738905644119","208.392","NaN","208.394","0.002","NaN","0","234",NA
"243","R_3Muqox3Nfy1n935","standard","2","169","LP","8.51632916846187","209.4","NaN","209.458","0.058","NaN","0","234",NA
"244","R_3Muqox3Nfy1n935","standard","2","170","LP","2.15079707022835","210.464","NaN","210.639","0.175","NaN","0","234",NA
"245","R_3Muqox3Nfy1n935","standard","2","171","LP","5.5010771219302","211.647","NaN","212.162","0.515","NaN","0","234",NA
"246","R_3Muqox3Nfy1n935","standard","2","172","LP","1.25738905644119","213.168","NaN","213.426","0.258","NaN","0","234",NA
"247","R_3Muqox3Nfy1n935","standard","2","173","LP","2.15079707022835","214.431","NaN","214.763","0.332","NaN","0","234",NA
"248","R_3Muqox3Nfy1n935","standard","2","174","LP","1.25738905644119","215.768","NaN","216.111","0.343","NaN","0","234",NA
"249","R_3Muqox3Nfy1n935","standard","2","175","LP","0.264713485566566","217.12","NaN","217.311","0.191","NaN","0","234",NA
"250","R_3Muqox3Nfy1n935","standard","2","176","LP","2.15079707022835","218.32","NaN","218.557","0.237","NaN","0","234",NA
"251","R_3Muqox3Nfy1n935","standard","2","177","LP","8.51632916846187","219.56","NaN","219.794","0.234","NaN","0","234",NA
"252","R_3Muqox3Nfy1n935","standard","2","178","LP","19.8235243429556","220.799","NaN","221.047","0.248","NaN","0","234",NA
"253","R_3Muqox3Nfy1n935","standard","2","179","LP","0.264713485566566","222.056","222.322","222.364","0.308","0.042","3","237",NA
"254","R_3Muqox3Nfy1n935","standard","2","180","LP","8.51632916846187","223.368","NaN","223.653","0.285","NaN","0","237",NA
"255","R_3Muqox3Nfy1n935","standard","2","181","LP","19.8235243429556","224.656","NaN","224.887","0.231","NaN","0","237",NA
"256","R_3Muqox3Nfy1n935","standard","2","182","LP","0.661783713916415","225.896","NaN","226.27","0.374","NaN","0","237",NA
"257","R_3Muqox3Nfy1n935","standard","2","183","LP","1.25738905644119","227.28","NaN","227.678","0.398","NaN","0","237",NA
"258","R_3Muqox3Nfy1n935","standard","2","184","LP","19.8235243429556","228.68","NaN","229.093","0.413","NaN","0","237",NA
"259","R_3Muqox3Nfy1n935","standard","2","185","LP","19.8235243429556","230.096","NaN","230.426","0.33","NaN","0","237",NA
"260","R_3Muqox3Nfy1n935","standard","2","186","LP","13.0392072382594","231.431","NaN","231.861","0.43","NaN","0","237",NA
"261","R_3Muqox3Nfy1n935","standard","2","187","LP","13.0392072382594","232.863","NaN","233.265","0.402","NaN","0","237",NA
"262","R_3Muqox3Nfy1n935","standard","2","188","LP","2.15079707022835","234.271","NaN","234.647","0.376","NaN","0","237",NA
"263","R_3Muqox3Nfy1n935","standard","2","189","LP","13.0392072382594","235.656","NaN","235.984","0.328","NaN","0","237",NA
"264","R_3Muqox3Nfy1n935","standard","2","190","LP","30","236.993","NaN","237.326","0.333","NaN","0","237",NA
"265","R_3Muqox3Nfy1n935","standard","2","191","LP","0.661783713916415","238.328","NaN","238.799","0.471","NaN","0","237",NA
"266","R_3Muqox3Nfy1n935","standard","2","192","LP","0.264713485566566","239.8","240.072","240.328","0.528","0.256","3","240",NA
"267","R_3Muqox3Nfy1n935","standard","2","193","LP","1.25738905644119","241.336","NaN","241.416","0.08","NaN","0","240",NA
"268","R_3Muqox3Nfy1n935","standard","2","194","LP","0.661783713916415","242.424","NaN","242.454","0.03","NaN","0","240",NA
"269","R_3Muqox3Nfy1n935","standard","2","195","LP","5.5010771219302","243.455","NaN","243.566","0.111","NaN","0","240",NA
"270","R_3Muqox3Nfy1n935","standard","2","196","LP","19.8235243429556","244.568","NaN","245.213","0.645","NaN","0","240",NA
"271","R_3Muqox3Nfy1n935","standard","2","197","LP","0.264713485566566","246.216","NaN","246.48","0.264","NaN","0","240",NA
"272","R_3Muqox3Nfy1n935","standard","2","198","LP","13.0392072382594","247.488","NaN","250.019","2.531","NaN","0","240",NA
"273","R_3Muqox3Nfy1n935","standard","2","199","LP","0.264713485566566","251.023","251.295","251.319","0.296","0.024","3","243",NA
"274","R_3Muqox3Nfy1n935","standard","2","200","LP","3.49090909090909","252.322","NaN","252.915","0.593","NaN","0","243",NA
"275","R_3Muqox3Nfy1n935","standard","2","201","LP","2.15079707022835","253.919","NaN","254.167","0.248","NaN","0","243",NA
"276","R_3Muqox3Nfy1n935","standard","2","202","LP","19.8235243429556","255.176","NaN","255.534","0.358","NaN","0","243",NA
"277","R_3Muqox3Nfy1n935","standard","2","203","LP","3.49090909090909","256.536","NaN","256.954","0.418","NaN","0","243",NA
"278","R_3Muqox3Nfy1n935","standard","2","204","LP","1.25738905644119","257.959","NaN","258.276","0.317","NaN","0","243",NA
"279","R_3Muqox3Nfy1n935","standard","2","205","LP","0.264713485566566","259.28","259.552","259.781","0.501","0.229","3","246",NA
"280","R_3Muqox3Nfy1n935","standard","2","206","LP","1.25738905644119","260.784","NaN","261.167","0.383","NaN","0","246",NA
"281","R_3Muqox3Nfy1n935","standard","2","207","LP","13.0392072382594","262.179","NaN","262.603","0.424","NaN","0","246",NA
"282","R_3Muqox3Nfy1n935","standard","2","208","LP","19.8235243429556","263.609","NaN","264.017","0.408","NaN","0","246",NA
"283","R_3Muqox3Nfy1n935","standard","2","209","LP","13.0392072382594","265.023","NaN","265.45","0.427","NaN","0","246",NA
"284","R_3Muqox3Nfy1n935","standard","2","210","LP","19.8235243429556","266.456","NaN","266.822","0.366","NaN","0","246",NA
"285","R_3Muqox3Nfy1n935","standard","2","211","LP","8.51632916846187","267.824","NaN","268.203","0.379","NaN","0","246",NA
"286","R_3Muqox3Nfy1n935","standard","2","212","LP","0.661783713916415","269.209","NaN","269.326","0.117","NaN","0","246",NA
"287","R_3Muqox3Nfy1n935","standard","2","213","LP","19.8235243429556","270.328","NaN","270.691","0.363","NaN","0","246",NA
"288","R_3Muqox3Nfy1n935","standard","2","214","LP","5.5010771219302","271.696","NaN","272.109","0.413","NaN","0","246",NA
"289","R_3Muqox3Nfy1n935","standard","2","215","LP","13.0392072382594","273.112","NaN","273.466","0.354","NaN","0","246",NA
"290","R_3Muqox3Nfy1n935","standard","2","216","LP","2.15079707022835","274.472","NaN","274.942","0.47","NaN","0","246",NA
"291","R_3Muqox3Nfy1n935","standard","2","217","LP","0.264713485566566","275.944","276.211","276.392","0.448","0.181","3","249",NA
"292","R_3Muqox3Nfy1n935","standard","2","218","LP","13.0392072382594","277.4","NaN","277.829","0.429","NaN","0","249",NA
"293","R_3Muqox3Nfy1n935","standard","2","219","LP","0.264713485566566","278.832","279.104","279.16","0.328","0.056","3","252",NA
"294","R_3Muqox3Nfy1n935","standard","2","220","LP","19.8235243429556","280.168","NaN","280.4","0.232","NaN","0","252",NA
"295","R_3Muqox3Nfy1n935","standard","2","221","LP","3.49090909090909","281.408","NaN","281.792","0.384","NaN","0","252",NA
"296","R_3Muqox3Nfy1n935","standard","2","222","LP","30","282.8","NaN","283.103","0.303","NaN","0","252",NA
"297","R_3Muqox3Nfy1n935","standard","2","223","LP","0.264713485566566","284.106","NaN","284.141","0.035","NaN","0","252",NA
"298","R_3Muqox3Nfy1n935","standard","2","224","LP","2.15079707022835","285.144","NaN","285.295","0.151","NaN","0","252",NA
"299","R_3Muqox3Nfy1n935","standard","2","225","LP","3.49090909090909","286.304","NaN","286.564","0.26","NaN","0","252",NA
"300","R_3Muqox3Nfy1n935","standard","2","226","LP","0.661783713916415","287.568","NaN","287.771","0.203","NaN","0","252",NA
"301","R_3Muqox3Nfy1n935","standard","2","227","LP","1.25738905644119","288.776","NaN","289.035","0.259","NaN","0","252",NA
"302","R_3Muqox3Nfy1n935","standard","2","228","LP","8.51632916846187","290.04","NaN","290.66","0.62","NaN","0","252",NA
"303","R_3Muqox3Nfy1n935","standard","2","229","LP","13.0392072382594","291.664","NaN","292.172","0.508","NaN","0","252",NA
"304","R_3Muqox3Nfy1n935","standard","2","230","LP","0.264713485566566","293.176","NaN","293.405","0.229","NaN","0","252",NA
"305","R_3Muqox3Nfy1n935","standard","2","231","LP","2.15079707022835","294.408","NaN","295.128","0.72","NaN","0","252",NA
"306","R_3Muqox3Nfy1n935","standard","2","232","LP","13.0392072382594","296.135","NaN","296.632","0.497","NaN","0","252",NA
"307","R_3Muqox3Nfy1n935","standard","2","233","LP","30","297.639","NaN","297.859","0.22","NaN","0","252",NA
"308","R_3Muqox3Nfy1n935","standard","2","234","LP","3.49090909090909","298.864","NaN","298.997","0.133","NaN","0","252",NA
"309","R_3Muqox3Nfy1n935","standard","2","235","LP","19.8235243429556","300","NaN","300.381","0.381","NaN","0","252",NA
"310","R_3Muqox3Nfy1n935","standard","2","236","LP","0.661783713916415","301.384","NaN","301.696","0.312","NaN","0","252",NA
"311","R_3Muqox3Nfy1n935","standard","2","237","LP","2.15079707022835","302.704","NaN","303.105","0.401","NaN","0","252",NA
"312","R_3Muqox3Nfy1n935","standard","2","238","LP","5.5010771219302","304.108","NaN","304.382","0.274","NaN","0","252",NA
"313","R_3Muqox3Nfy1n935","standard","2","239","LP","19.8235243429556","305.384","NaN","306.06","0.676","NaN","0","252",NA
"314","R_3Muqox3Nfy1n935","standard","2","240","LP","19.8235243429556","307.064","NaN","307.271","0.207","NaN","0","252",NA
"315","R_3Muqox3Nfy1n935","standard","2","241","LP","3.49090909090909","308.28","NaN","308.597","0.317","NaN","0","252",NA
"316","R_3Muqox3Nfy1n935","standard","2","242","LP","8.51632916846187","309.6","NaN","309.814","0.214","NaN","0","252",NA
"317","R_3Muqox3Nfy1n935","standard","2","243","LP","5.5010771219302","310.816","NaN","311.087","0.271","NaN","0","252",NA
"318","R_3Muqox3Nfy1n935","standard","2","244","LP","1.25738905644119","312.096","NaN","312.203","0.107","NaN","0","252",NA
"319","R_3Muqox3Nfy1n935","standard","2","245","LP","13.0392072382594","313.208","NaN","313.452","0.244","NaN","0","252",NA
"320","R_3Muqox3Nfy1n935","standard","2","246","LP","30","314.456","NaN","314.907","0.451","NaN","0","252",NA
"321","R_3Muqox3Nfy1n935","standard","2","247","LP","13.0392072382594","315.912","NaN","315.973","0.061","NaN","0","252",NA
"322","R_3Muqox3Nfy1n935","standard","2","248","LP","0.264713485566566","316.976","NaN","317.091","0.115","NaN","0","252",NA
"323","R_3Muqox3Nfy1n935","standard","2","249","LP","3.49090909090909","318.096","NaN","318.139","0.043","NaN","0","252",NA
"324","R_3Muqox3Nfy1n935","standard","2","250","LP","13.0392072382594","319.141","NaN","319.199","0.058","NaN","0","252",NA
"325","R_3Muqox3Nfy1n935","standard","2","251","LP","0.264713485566566","320.208","NaN","320.351","0.143","NaN","0","252",NA
"326","R_3Muqox3Nfy1n935","standard","2","252","LP","5.5010771219302","321.36","NaN","321.466","0.106","NaN","0","252",NA
"327","R_3Muqox3Nfy1n935","standard","2","253","LP","2.15079707022835","322.472","NaN","322.881","0.409","NaN","0","252",NA
"328","R_3Muqox3Nfy1n935","standard","2","254","LP","0.661783713916415","323.888","NaN","324.142","0.254","NaN","0","252",NA
"329","R_3Muqox3Nfy1n935","standard","2","255","LP","3.49090909090909","325.144","NaN","325.358","0.214","NaN","0","252",NA
"330","R_3Muqox3Nfy1n935","standard","2","256","LP","3.49090909090909","326.36","NaN","326.667","0.307","NaN","0","252",NA
"331","R_3Muqox3Nfy1n935","standard","2","257","LP","5.5010771219302","327.671","NaN","327.9","0.229","NaN","0","252",NA
"332","R_3Muqox3Nfy1n935","standard","2","258","LP","30","328.904","NaN","329.143","0.239","NaN","0","252",NA
"333","R_3Muqox3Nfy1n935","standard","2","259","LP","30","330.152","NaN","330.447","0.295","NaN","0","252",NA
"334","R_3Muqox3Nfy1n935","standard","2","260","LP","13.0392072382594","331.456","NaN","331.463","0.007","NaN","0","252",NA
"335","R_3Muqox3Nfy1n935","standard","2","261","LP","5.5010771219302","332.472","NaN","332.93","0.458","NaN","0","252",NA
"336","R_3Muqox3Nfy1n935","standard","2","262","LP","2.15079707022835","333.936","NaN","334.202","0.266","NaN","0","252",NA
"337","R_3Muqox3Nfy1n935","standard","2","263","LP","13.0392072382594","335.21","NaN","335.271","0.061","NaN","0","252",NA
"338","R_3Muqox3Nfy1n935","standard","2","264","LP","8.51632916846187","336.28","NaN","336.34","0.06","NaN","0","252",NA
"339","R_3Muqox3Nfy1n935","standard","2","265","LP","19.8235243429556","337.343","NaN","337.455","0.112","NaN","0","252",NA
"340","R_3Muqox3Nfy1n935","standard","2","266","LP","30","338.458","NaN","338.849","0.391","NaN","0","252",NA
"341","R_3Muqox3Nfy1n935","standard","2","267","LP","3.49090909090909","339.856","NaN","339.93","0.074","NaN","0","252",NA
"342","R_3Muqox3Nfy1n935","standard","2","268","LP","30","340.936","NaN","341.039","0.103","NaN","0","252",NA
"343","R_3Muqox3Nfy1n935","standard","2","269","LP","3.49090909090909","342.04","NaN","342.105","0.065","NaN","0","252",NA
"344","R_3Muqox3Nfy1n935","standard","2","270","LP","0.264713485566566","343.106","NaN","343.123","0.017","NaN","0","252",NA
"345","R_3Muqox3Nfy1n935","standard","2","271","LP","19.8235243429556","344.125","NaN","344.231","0.106","NaN","0","252",NA
"346","R_3Muqox3Nfy1n935","standard","2","272","LP","0.661783713916415","345.232","345.896","346.494","1.262","0.598","3","255",NA
"347","R_3Muqox3Nfy1n935","standard","2","273","LP","1.25738905644119","347.496","348.76","349.189","1.693","0.429","3","258",NA
"348","R_3Muqox3Nfy1n935","standard","2","274","LP","2.15079707022835","350.192","NaN","350.726","0.534","NaN","0","258",NA
"349","R_3Muqox3Nfy1n935","standard","2","275","LP","1.25738905644119","351.728","NaN","352.116","0.388","NaN","0","258",NA
"350","R_3Muqox3Nfy1n935","standard","2","276","LP","0.264713485566566","353.12","353.392","353.795","0.675","0.403","3","261",NA
"351","R_3Muqox3Nfy1n935","standard","2","277","LP","3.49090909090909","354.8","NaN","355.181","0.381","NaN","0","261",NA
"352","R_3Muqox3Nfy1n935","standard","2","278","LP","1.25738905644119","356.184","NaN","356.283","0.099","NaN","0","261",NA
"353","R_3Muqox3Nfy1n935","standard","2","279","LP","13.0392072382594","357.288","NaN","357.319","0.031","NaN","0","261",NA
"354","R_3Muqox3Nfy1n935","standard","2","280","LP","0.661783713916415","358.325","NaN","358.442","0.117","NaN","0","261",NA
"355","R_3Muqox3Nfy1n935","standard","2","281","LP","5.5010771219302","359.448","NaN","360.143","0.695","NaN","0","261",NA
"356","R_3Muqox3Nfy1n935","standard","2","282","LP","0.264713485566566","361.144","361.41","361.88","0.736","0.47","3","264",NA
"357","R_3Muqox3Nfy1n935","standard","2","283","LP","19.8235243429556","362.888","NaN","363.135","0.247","NaN","0","264",NA
"358","R_3Muqox3Nfy1n935","standard","2","284","LP","0.264713485566566","364.142","364.412","364.52","0.378","0.108","3","267",NA
"359","R_3Muqox3Nfy1n935","standard","2","285","LP","2.15079707022835","365.528","NaN","365.802","0.274","NaN","0","267",NA
"360","R_3Muqox3Nfy1n935","standard","2","286","LP","3.49090909090909","366.811","NaN","367.082","0.271","NaN","0","267",NA
"361","R_3Muqox3Nfy1n935","standard","2","287","LP","19.8235243429556","368.088","NaN","368.293","0.205","NaN","0","267",NA
"362","R_3Muqox3Nfy1n935","standard","2","288","LP","13.0392072382594","369.296","NaN","369.526","0.23","NaN","0","267",NA
"363","R_3Muqox3Nfy1n935","standard","2","289","LP","13.0392072382594","370.528","NaN","370.791","0.263","NaN","0","267",NA
"364","R_3Muqox3Nfy1n935","standard","2","290","LP","1.25738905644119","371.8","NaN","372.01","0.21","NaN","0","267",NA
"365","R_3Muqox3Nfy1n935","standard","2","291","LP","0.264713485566566","373.014","NaN","373.256","0.242","NaN","0","267",NA
"366","R_3Muqox3Nfy1n935","standard","2","292","LP","0.264713485566566","374.264","NaN","374.281","0.017","NaN","0","267",NA
"367","R_3Muqox3Nfy1n935","standard","2","293","LP","3.49090909090909","375.283","NaN","375.324","0.041","NaN","0","267",NA
"368","R_3Muqox3Nfy1n935","standard","2","294","LP","0.661783713916415","376.326","NaN","376.393","0.067","NaN","0","267",NA
"369","R_3Muqox3Nfy1n935","standard","2","295","LP","13.0392072382594","377.4","NaN","377.419","0.019","NaN","0","267",NA
"370","R_3Muqox3Nfy1n935","standard","2","296","LP","8.51632916846187","378.424","NaN","378.557","0.133","NaN","0","267",NA
"371","R_3Muqox3Nfy1n935","standard","2","297","LP","1.25738905644119","379.56","NaN","379.964","0.404","NaN","0","267",NA
"372","R_3Muqox3Nfy1n935","standard","2","298","LP","5.5010771219302","380.968","NaN","381.272","0.304","NaN","0","267",NA
"373","R_3Muqox3Nfy1n935","standard","2","299","LP","13.0392072382594","382.28","NaN","382.601","0.321","NaN","0","267",NA
"374","R_3Muqox3Nfy1n935","standard","2","300","LP","3.49090909090909","383.609","NaN","383.901","0.292","NaN","0","267",NA
"375","R_3Muqox3Nfy1n935","standard","2","301","LP","3.49090909090909","384.905","NaN","385.155","0.25","NaN","0","267",NA
"376","R_3Muqox3Nfy1n935","standard","2","302","LP","0.661783713916415","386.16","NaN","386.406","0.246","NaN","0","267",NA
"377","R_3Muqox3Nfy1n935","standard","2","303","LP","30","387.412","NaN","387.628","0.216","NaN","0","267",NA
"378","R_3Muqox3Nfy1n935","standard","2","304","LP","5.5010771219302","388.632","NaN","388.918","0.286","NaN","0","267",NA
"379","R_3Muqox3Nfy1n935","standard","2","305","LP","1.25738905644119","389.92","NaN","390.143","0.223","NaN","0","267",NA
"380","R_3Muqox3Nfy1n935","standard","2","306","LP","5.5010771219302","391.152","NaN","391.342","0.19","NaN","0","267",NA
"381","R_3Muqox3Nfy1n935","standard","2","307","LP","1.25738905644119","392.344","NaN","392.741","0.397","NaN","0","267",NA
"382","R_3Muqox3Nfy1n935","standard","2","308","LP","1.25738905644119","393.744","NaN","394.073","0.329","NaN","0","267",NA
"383","R_3Muqox3Nfy1n935","standard","2","309","LP","0.661783713916415","395.08","NaN","395.287","0.207","NaN","0","267",NA
"384","R_3Muqox3Nfy1n935","standard","2","310","LP","1.25738905644119","396.295","397.56","397.831","1.536","0.271","3","270",NA
"385","R_3Muqox3Nfy1n935","standard","2","311","LP","19.8235243429556","398.84","NaN","399.212","0.372","NaN","0","270",NA
"386","R_3Muqox3Nfy1n935","standard","2","312","LP","0.661783713916415","400.216","400.88","401.35","1.134","0.47","3","273",NA
"387","R_3Muqox3Nfy1n935","standard","2","313","LP","5.5010771219302","402.36","NaN","405.364","3.004","NaN","0","273",NA
"388","R_3Muqox3Nfy1n935","standard","2","314","LP","5.5010771219302","406.368","NaN","408.208","1.84","NaN","0","273",NA
"389","R_3Muqox3Nfy1n935","standard","2","315","LP","19.8235243429556","409.213","NaN","410.787","1.574","NaN","0","273",NA
"390","R_3Muqox3Nfy1n935","standard","2","316","LP","0.661783713916415","411.792","NaN","412.122","0.33","NaN","0","273",NA
"391","R_3Muqox3Nfy1n935","standard","2","317","LP","5.5010771219302","413.127","NaN","413.488","0.361","NaN","0","273",NA
"392","R_3Muqox3Nfy1n935","standard","2","318","LP","5.5010771219302","414.496","NaN","414.912","0.416","NaN","0","273",NA
"393","R_3Muqox3Nfy1n935","standard","2","319","LP","3.49090909090909","415.92","NaN","416.254","0.334","NaN","0","273",NA
"394","R_3Muqox3Nfy1n935","standard","2","320","LP","13.0392072382594","417.256","NaN","418.032","0.776","NaN","0","273",NA
"395","R_3Muqox3Nfy1n935","standard","2","321","LP","0.264713485566566","419.04","419.307","419.671","0.631","0.364","3","276",NA
"396","R_3Muqox3Nfy1n935","standard","2","322","LP","8.51632916846187","420.68","NaN","421.032","0.352","NaN","0","276",NA
"397","R_3Muqox3Nfy1n935","standard","2","323","LP","0.264713485566566","422.04","NaN","422.297","0.257","NaN","0","276",NA
"398","R_3Muqox3Nfy1n935","standard","2","324","LP","3.49090909090909","423.304","NaN","423.557","0.253","NaN","0","276",NA
"399","R_3Muqox3Nfy1n935","standard","2","325","LP","13.0392072382594","424.56","NaN","424.787","0.227","NaN","0","276",NA
"400","R_3Muqox3Nfy1n935","standard","2","326","LP","8.51632916846187","425.792","NaN","426.877","1.085","NaN","0","276",NA
"401","R_3Muqox3Nfy1n935","standard","2","327","LP","1.25738905644119","427.88","NaN","428.24","0.36","NaN","0","276",NA
"402","R_3Muqox3Nfy1n935","standard","2","328","LP","1.25738905644119","429.244","NaN","429.614","0.37","NaN","0","276",NA
"403","R_3Muqox3Nfy1n935","standard","2","329","LP","13.0392072382594","430.616","NaN","430.955","0.339","NaN","0","276",NA
"404","R_3Muqox3Nfy1n935","standard","2","330","LP","5.5010771219302","431.96","NaN","432.589","0.629","NaN","0","276",NA
"405","R_3Muqox3Nfy1n935","standard","2","331","LP","30","433.593","NaN","433.869","0.276","NaN","0","276",NA
"406","R_3Muqox3Nfy1n935","standard","2","332","LP","3.49090909090909","434.872","NaN","435.34","0.468","NaN","0","276",NA
"407","R_3Muqox3Nfy1n935","standard","2","333","LP","2.15079707022835","436.344","NaN","436.705","0.361","NaN","0","276",NA
"408","R_3Muqox3Nfy1n935","standard","2","334","LP","13.0392072382594","437.709","NaN","437.996","0.287","NaN","0","276",NA
"409","R_3Muqox3Nfy1n935","standard","2","335","LP","8.51632916846187","439","NaN","439.261","0.261","NaN","0","276",NA
"410","R_3Muqox3Nfy1n935","standard","2","336","LP","8.51632916846187","440.264","NaN","440.522","0.258","NaN","0","276",NA
"411","R_3Muqox3Nfy1n935","standard","2","337","LP","5.5010771219302","441.528","NaN","441.836","0.308","NaN","0","276",NA
"412","R_3Muqox3Nfy1n935","standard","2","338","LP","3.49090909090909","442.84","NaN","443.143","0.303","NaN","0","276",NA
"413","R_3Muqox3Nfy1n935","standard","2","339","LP","5.5010771219302","444.144","NaN","444.358","0.214","NaN","0","276",NA
"414","R_3Muqox3Nfy1n935","standard","2","340","LP","1.25738905644119","445.36","NaN","445.41","0.05","NaN","0","276",NA
"415","R_3Muqox3Nfy1n935","standard","2","341","LP","13.0392072382594","446.411","NaN","446.651","0.24","NaN","0","276",NA
"416","R_3Muqox3Nfy1n935","standard","2","342","LP","0.264713485566566","447.656","447.928","448.435","0.779","0.507","3","279",NA
"417","R_3Muqox3Nfy1n935","standard","2","343","LP","5.5010771219302","449.44","NaN","450.022","0.582","NaN","0","279",NA
"418","R_3Muqox3Nfy1n935","standard","2","344","LP","3.49090909090909","451.024","NaN","451.276","0.252","NaN","0","279",NA
"419","R_3Muqox3Nfy1n935","standard","2","345","LP","8.51632916846187","452.28","NaN","452.503","0.223","NaN","0","279",NA
"420","R_3Muqox3Nfy1n935","standard","2","346","LP","8.51632916846187","453.504","NaN","453.743","0.239","NaN","0","279",NA
"421","R_3Muqox3Nfy1n935","standard","2","347","LP","19.8235243429556","454.752","NaN","455.122","0.37","NaN","0","279",NA
"422","R_3Muqox3Nfy1n935","standard","2","348","LP","0.264713485566566","456.128","456.4","456.656","0.528","0.256","3","282",NA
"423","R_3Muqox3Nfy1n935","standard","2","349","LP","19.8235243429556","457.664","NaN","458.01","0.346","NaN","0","282",NA
"424","R_3Muqox3Nfy1n935","standard","2","350","LP","3.49090909090909","459.011","NaN","459.617","0.606","NaN","0","282",NA
"425","R_3Muqox3Nfy1n935","standard","2","351","LP","0.264713485566566","460.624","460.896","461.038","0.414","0.142","3","285",NA
"426","R_3Muqox3Nfy1n935","standard","2","352","LP","5.5010771219302","462.04","NaN","462.375","0.335","NaN","0","285",NA
"427","R_3Muqox3Nfy1n935","standard","2","353","LP","2.15079707022835","463.376","NaN","463.625","0.249","NaN","0","285",NA
"428","R_3Muqox3Nfy1n935","standard","2","354","LP","30","464.628","NaN","464.866","0.238","NaN","0","285",NA
"429","R_3Muqox3Nfy1n935","standard","2","355","LP","0.264713485566566","465.872","NaN","466.081","0.209","NaN","0","285",NA
"430","R_3Muqox3Nfy1n935","standard","2","356","LP","1.25738905644119","467.088","NaN","467.265","0.177","NaN","0","285",NA
"431","R_3Muqox3Nfy1n935","standard","2","357","LP","2.15079707022835","468.272","NaN","468.496","0.224","NaN","0","285",NA
"432","R_3Muqox3Nfy1n935","standard","2","358","LP","3.49090909090909","469.504","NaN","469.687","0.183","NaN","0","285",NA
"433","R_3Muqox3Nfy1n935","standard","2","359","LP","13.0392072382594","470.688","NaN","470.861","0.173","NaN","0","285",NA
"434","R_3Muqox3Nfy1n935","standard","2","360","LP","30","471.864","NaN","472.136","0.272","NaN","0","285",NA
"435","R_3Muqox3Nfy1n935","standard","2","361","LP","2.15079707022835","473.144","NaN","473.454","0.31","NaN","0","285",NA
"436","R_3Muqox3Nfy1n935","standard","2","362","LP","19.8235243429556","474.464","NaN","474.84","0.376","NaN","0","285",NA
"437","R_3Muqox3Nfy1n935","standard","2","363","LP","3.49090909090909","475.845","NaN","476.089","0.244","NaN","0","285",NA
"438","R_3Muqox3Nfy1n935","standard","2","364","LP","0.661783713916415","477.096","NaN","477.117","0.021","NaN","0","285",NA
"439","R_3Muqox3Nfy1n935","standard","2","365","LP","5.5010771219302","478.12","NaN","479.918","1.798","NaN","0","285",NA
"440","R_3Muqox3Nfy1n935","standard","2","366","LP","8.51632916846187","480.92","NaN","481.305","0.385","NaN","0","285",NA
"441","R_3Muqox3Nfy1n935","standard","2","367","LP","30","482.307","NaN","483.146","0.839","NaN","0","285",NA
"442","R_3Muqox3Nfy1n935","standard","2","368","LP","8.51632916846187","484.152","NaN","485.102","0.95","NaN","0","285",NA
"443","R_3Muqox3Nfy1n935","standard","2","369","LP","19.8235243429556","486.105","NaN","486.436","0.331","NaN","0","285",NA
"444","R_3Muqox3Nfy1n935","standard","2","370","LP","8.51632916846187","487.44","NaN","487.764","0.324","NaN","0","285",NA
"445","R_3Muqox3Nfy1n935","standard","2","371","LP","5.5010771219302","488.768","NaN","489.099","0.331","NaN","0","285",NA
"446","R_3Muqox3Nfy1n935","standard","2","372","LP","0.264713485566566","490.104","490.376","490.388","0.284","0.012","3","288",NA
"447","R_3Muqox3Nfy1n935","standard","2","373","LP","3.49090909090909","491.392","NaN","491.645","0.253","NaN","0","288",NA
"448","R_3Muqox3Nfy1n935","standard","2","374","LP","1.25738905644119","492.648","NaN","492.97","0.322","NaN","0","288",NA
"449","R_3Muqox3Nfy1n935","standard","2","375","LP","30","493.976","NaN","494.354","0.378","NaN","0","288",NA
"450","R_3Muqox3Nfy1n935","standard","2","376","LP","19.8235243429556","495.36","NaN","495.731","0.371","NaN","0","288",NA
"451","R_3Muqox3Nfy1n935","standard","2","377","LP","13.0392072382594","496.736","NaN","497.063","0.327","NaN","0","288",NA
"452","R_3Muqox3Nfy1n935","standard","2","378","LP","13.0392072382594","498.072","NaN","498.346","0.274","NaN","0","288",NA
"453","R_3Muqox3Nfy1n935","standard","2","379","LP","2.15079707022835","499.352","NaN","500.045","0.693","NaN","0","288",NA
"454","R_3Muqox3Nfy1n935","standard","2","380","LP","3.49090909090909","501.048","NaN","501.751","0.703","NaN","0","288",NA
"455","R_3Muqox3Nfy1n935","standard","2","381","LP","5.5010771219302","502.76","NaN","504.137","1.377","NaN","0","288",NA
"456","R_3Muqox3Nfy1n935","standard","2","382","LP","0.264713485566566","505.144","505.411","505.484","0.34","0.073","3","291",NA
"457","R_3Muqox3Nfy1n935","standard","2","383","LP","8.51632916846187","506.488","NaN","506.494","0.006","NaN","0","291",NA
"458","R_3Muqox3Nfy1n935","standard","2","384","LP","0.264713485566566","507.496","NaN","507.562","0.066","NaN","0","291",NA
"459","R_3Muqox3Nfy1n935","standard","2","385","LP","0.661783713916415","508.568","NaN","508.655","0.087","NaN","0","291",NA
"460","R_3Muqox3Nfy1n935","standard","2","386","LP","5.5010771219302","509.664","NaN","509.944","0.28","NaN","0","291",NA
"461","R_3Muqox3Nfy1n935","standard","2","387","LP","0.264713485566566","510.952","511.224","511.732","0.78","0.508","3","294",NA
"462","R_3Muqox3Nfy1n935","standard","2","388","LP","0.661783713916415","512.736","NaN","512.981","0.245","NaN","0","294",NA
"463","R_3Muqox3Nfy1n935","standard","2","389","LP","3.49090909090909","513.984","NaN","514.185","0.201","NaN","0","294",NA
"464","R_3Muqox3Nfy1n935","standard","2","390","LP","30","515.192","NaN","515.224","0.032","NaN","0","294",NA
"465","R_3Muqox3Nfy1n935","standard","2","391","LP","0.661783713916415","516.23","NaN","516.33","0.1","NaN","0","294",NA
"466","R_3Muqox3Nfy1n935","standard","2","392","LP","8.51632916846187","517.336","NaN","517.378","0.042","NaN","0","294",NA
"467","R_3Muqox3Nfy1n935","standard","2","393","LP","1.25738905644119","518.384","NaN","518.745","0.361","NaN","0","294",NA
"468","R_3Muqox3Nfy1n935","standard","2","394","LP","30","519.752","NaN","519.952","0.2","NaN","0","294",NA
"469","R_3Muqox3Nfy1n935","standard","2","395","LP","0.264713485566566","520.96","NaN","521.188","0.228","NaN","0","294",NA
"470","R_3Muqox3Nfy1n935","standard","2","396","LP","13.0392072382594","522.192","NaN","522.378","0.186","NaN","0","294",NA
"471","R_3Muqox3Nfy1n935","standard","2","397","LP","19.8235243429556","523.384","NaN","523.461","0.077","NaN","0","294",NA
"472","R_3Muqox3Nfy1n935","standard","2","398","LP","30","524.464","NaN","524.642","0.178","NaN","0","294",NA
"473","R_3Muqox3Nfy1n935","standard","2","399","LP","8.51632916846187","525.648","NaN","525.974","0.326","NaN","0","294",NA
"474","R_3Muqox3Nfy1n935","standard","2","400","LP","13.0392072382594","526.976","NaN","527.229","0.253","NaN","0","294",NA
"475","R_3Muqox3Nfy1n935","standard","2","401","LP","2.15079707022835","528.232","NaN","528.542","0.31","NaN","0","294",NA
"476","R_3Muqox3Nfy1n935","standard","2","402","LP","0.661783713916415","529.544","NaN","529.942","0.398","NaN","0","294",NA
"477","R_3Muqox3Nfy1n935","standard","2","403","LP","13.0392072382594","530.944","NaN","531.539","0.595","NaN","0","294",NA
"478","R_3Muqox3Nfy1n935","standard","2","404","LP","5.5010771219302","532.544","NaN","532.777","0.233","NaN","0","294",NA
"479","R_3Muqox3Nfy1n935","standard","2","405","LP","0.264713485566566","533.784","534.056","534.089","0.305","0.033","3","297",NA
"480","R_3Muqox3Nfy1n935","standard","2","406","LP","2.15079707022835","535.096","NaN","535.3","0.204","NaN","0","297",NA
"481","R_3Muqox3Nfy1n935","standard","2","407","LP","5.5010771219302","536.305","NaN","536.374","0.069","NaN","0","297",NA
"482","R_3Muqox3Nfy1n935","standard","2","408","LP","30","537.387","NaN","537.519","0.132","NaN","0","297",NA
"483","R_3Muqox3Nfy1n935","standard","2","409","LP","1.25738905644119","538.528","NaN","538.801","0.273","NaN","0","297",NA
"484","R_3Muqox3Nfy1n935","standard","2","410","LP","8.51632916846187","539.81","NaN","540.17","0.36","NaN","0","297",NA
"485","R_3Muqox3Nfy1n935","standard","2","411","LP","8.51632916846187","541.176","NaN","541.482","0.306","NaN","0","297",NA
"486","R_3Muqox3Nfy1n935","standard","2","412","LP","19.8235243429556","542.488","NaN","542.746","0.258","NaN","0","297",NA
"487","R_3Muqox3Nfy1n935","standard","2","413","LP","0.661783713916415","543.752","NaN","543.963","0.211","NaN","0","297",NA
"488","R_3Muqox3Nfy1n935","standard","2","414","LP","13.0392072382594","544.968","NaN","545.185","0.217","NaN","0","297",NA
"489","R_3Muqox3Nfy1n935","standard","2","415","LP","2.15079707022835","546.192","NaN","546.428","0.236","NaN","0","297",NA
"490","R_3Muqox3Nfy1n935","standard","2","416","LP","0.264713485566566","547.432","NaN","547.682","0.25","NaN","0","297",NA
"491","R_3Muqox3Nfy1n935","standard","2","417","LP","2.15079707022835","548.688","NaN","548.968","0.28","NaN","0","297",NA
"492","R_3Muqox3Nfy1n935","standard","2","418","LP","13.0392072382594","549.976","NaN","550.236","0.26","NaN","0","297",NA
"493","R_3Muqox3Nfy1n935","standard","2","419","LP","19.8235243429556","551.24","NaN","551.532","0.292","NaN","0","297",NA
"494","R_3Muqox3Nfy1n935","standard","2","420","LP","5.5010771219302","552.536","NaN","552.791","0.255","NaN","0","297",NA
"495","R_3Muqox3Nfy1n935","standard","2","421","LP","0.661783713916415","553.8","NaN","553.993","0.193","NaN","0","297",NA
"496","R_3Muqox3Nfy1n935","standard","2","422","LP","5.5010771219302","555","NaN","555.203","0.203","NaN","0","297",NA
"497","R_3Muqox3Nfy1n935","standard","2","423","LP","0.264713485566566","556.21","556.48","556.494","0.284","0.014","3","300",NA
"498","R_3Muqox3Nfy1n935","standard","2","424","LP","0.264713485566566","557.496","557.768","557.844","0.348","0.076","3","303",NA
"499","R_3Muqox3Nfy1n935","standard","2","425","LP","8.51632916846187","558.848","NaN","559.355","0.507","NaN","0","303",NA
"500","R_3Muqox3Nfy1n935","standard","2","426","LP","13.0392072382594","560.36","NaN","560.509","0.149","NaN","0","303",NA
"501","R_3Muqox3Nfy1n935","standard","2","427","LP","19.8235243429556","561.512","NaN","561.664","0.152","NaN","0","303",NA
"502","R_3Muqox3Nfy1n935","standard","2","428","LP","2.15079707022835","562.672","NaN","562.727","0.055","NaN","0","303",NA
"503","R_3Muqox3Nfy1n935","standard","2","429","LP","8.51632916846187","563.728","NaN","563.817","0.089","NaN","0","303",NA
"504","R_3Muqox3Nfy1n935","standard","2","430","LP","0.661783713916415","564.824","NaN","564.886","0.062","NaN","0","303",NA
"505","R_3Muqox3Nfy1n935","standard","2","431","LP","30","565.888","NaN","565.974","0.086","NaN","0","303",NA
"506","R_3Muqox3Nfy1n935","standard","2","432","LP","5.5010771219302","566.976","NaN","567.004","0.028","NaN","0","303",NA
"507","R_3Muqox3Nfy1n935","standard","2","433","LP","1.25738905644119","568.009","NaN","568.131","0.122","NaN","0","303",NA
"508","R_3Muqox3Nfy1n935","standard","2","434","LP","30","569.136","NaN","569.547","0.411","NaN","0","303",NA
"509","R_3Muqox3Nfy1n935","standard","2","435","LP","30","570.552","NaN","570.887","0.335","NaN","0","303",NA
"510","R_3Muqox3Nfy1n935","standard","2","436","LP","30","571.896","NaN","572.077","0.181","NaN","0","303",NA
"511","R_3Muqox3Nfy1n935","standard","2","437","LP","2.15079707022835","573.08","NaN","573.301","0.221","NaN","0","303",NA
"512","R_3Muqox3Nfy1n935","standard","2","438","LP","2.15079707022835","574.304","NaN","574.452","0.148","NaN","0","303",NA
"513","R_3Muqox3Nfy1n935","standard","2","439","LP","19.8235243429556","575.456","NaN","575.659","0.203","NaN","0","303",NA
"514","R_3Muqox3Nfy1n935","standard","2","440","LP","13.0392072382594","576.664","NaN","576.915","0.251","NaN","0","303",NA
"515","R_3Muqox3Nfy1n935","standard","2","441","LP","1.25738905644119","577.92","NaN","578.074","0.154","NaN","0","303",NA
"516","R_3Muqox3Nfy1n935","standard","2","442","LP","5.5010771219302","579.08","NaN","579.178","0.098","NaN","0","303",NA
"517","R_3Muqox3Nfy1n935","standard","2","443","LP","1.25738905644119","580.184","NaN","580.278","0.094","NaN","0","303",NA
"518","R_3Muqox3Nfy1n935","standard","2","444","LP","1.25738905644119","581.28","NaN","581.384","0.104","NaN","0","303",NA
"519","R_3Muqox3Nfy1n935","standard","2","445","LP","30","582.392","NaN","582.6","0.208","NaN","0","303",NA
"520","R_3Muqox3Nfy1n935","standard","2","446","LP","1.25738905644119","583.608","NaN","583.793","0.185","NaN","0","303",NA
"521","R_3Muqox3Nfy1n935","standard","2","447","LP","2.15079707022835","584.8","NaN","585.115","0.315","NaN","0","303",NA
"522","R_3Muqox3Nfy1n935","standard","2","448","LP","30","586.12","NaN","586.601","0.481","NaN","0","303",NA
"523","R_3Muqox3Nfy1n935","standard","2","449","LP","8.51632916846187","587.608","NaN","587.861","0.253","NaN","0","303",NA
"524","R_3Muqox3Nfy1n935","standard","2","450","LP","2.15079707022835","588.864","NaN","589.118","0.254","NaN","0","303",NA
"525","R_3Muqox3Nfy1n935","standard","2","451","LP","8.51632916846187","590.12","NaN","590.336","0.216","NaN","0","303",NA
"526","R_3Muqox3Nfy1n935","standard","2","452","LP","13.0392072382594","591.344","NaN","591.561","0.217","NaN","0","303",NA
"527","R_3Muqox3Nfy1n935","standard","2","453","LP","0.661783713916415","592.568","NaN","592.794","0.226","NaN","0","303",NA
"528","R_3Muqox3Nfy1n935","standard","2","454","LP","3.49090909090909","593.8","NaN","594.075","0.275","NaN","0","303",NA
"529","R_3Muqox3Nfy1n935","standard","2","455","LP","1.25738905644119","595.08","NaN","595.212","0.132","NaN","0","303",NA
"530","R_3Muqox3Nfy1n935","standard","2","456","LP","13.0392072382594","596.216","NaN","596.278","0.062","NaN","0","303",NA
"531","R_3Muqox3Nfy1n935","standard","2","457","LP","2.15079707022835","597.28","NaN","597.563","0.283","NaN","0","303",NA
"532","R_3Muqox3Nfy1n935","standard","2","458","LP","0.264713485566566","598.568","NaN","598.578","0.01","NaN","0","303",NA
"533","R_3Muqox3Nfy1n935","standard","2","459","LP","1.25738905644119","599.584","NaN","599.753","0.169","NaN","0","303",NA
