"","subject_id","condition","n_block","n_trialIdx","f_timing_condition","n_scheduled_delay","n_trial_start_time","n_rewarded_time_fin","n_sell_time_fin","n_time_waited_fin","RT_fin","n_trial_earnings_fin","n_total_earnings_fin","keypress_times"
"1","R_3MxQOie0e8eFzRJ","standard","1","1","LP","0.661783713916415","0.001","0.663","1.272","1.271","0.609","3","3",""
"2","R_3MxQOie0e8eFzRJ","standard","1","2","LP","2.15079707022835","2.286","4.445","4.803","2.517","0.358","3","6",""
"3","R_3MxQOie0e8eFzRJ","standard","1","3","LP","19.8235243429556","5.818","25.645","25.896","20.078","0.251","3","9",""
"4","R_3MxQOie0e8eFzRJ","standard","1","4","LP","1.25738905644119","26.916","28.192","28.487","1.571","0.295","3","12",""
"5","R_3MxQOie0e8eFzRJ","standard","1","5","LP","2.15079707022835","29.493","31.646","31.995","2.502","0.349","3","15",""
"6","R_3MxQOie0e8eFzRJ","standard","1","6","LP","8.51632916846187","33.006","41.536","41.773","8.767","0.237","3","18",""
"7","R_3MxQOie0e8eFzRJ","standard","1","7","LP","0.661783713916415","42.787","43.455","43.798","1.011","0.343","3","21",""
"8","R_3MxQOie0e8eFzRJ","standard","1","8","LP","2.15079707022835","44.817","46.97","47.281","2.464","0.311","3","24",""
"9","R_3MxQOie0e8eFzRJ","standard","1","9","LP","5.5010771219302","48.286","53.8","54.027","5.741","0.227","3","27",""
"10","R_3MxQOie0e8eFzRJ","standard","1","10","LP","3.49090909090909","55.032","58.535","58.846","3.814","0.311","3","30",""
"11","R_3MxQOie0e8eFzRJ","standard","1","11","LP","19.8235243429556","59.865","79.708","79.967","20.102","0.259","3","33",""
"12","R_3MxQOie0e8eFzRJ","standard","1","12","LP","1.25738905644119","80.976","82.243","82.532","1.556","0.289","3","36",""
"13","R_3MxQOie0e8eFzRJ","standard","1","13","LP","2.15079707022835","83.541","85.706","86.012","2.471","0.306","3","39",""
"14","R_3MxQOie0e8eFzRJ","standard","1","14","LP","8.51632916846187","87.026","95.552","95.883","8.857","0.331","3","42",""
"15","R_3MxQOie0e8eFzRJ","standard","1","15","LP","3.49090909090909","96.887","100.385","100.706","3.819","0.321","3","42","364"
"16","R_3MxQOie0e8eFzRJ","standard","1","16","LP","1.25738905644119","101.717","102.983","103.471","1.754","0.488","3","45",""
"17","R_3MxQOie0e8eFzRJ","standard","1","17","LP","5.5010771219302","104.485","109.999","110.325","5.84","0.326","3","48",""
"18","R_3MxQOie0e8eFzRJ","standard","1","18","LP","0.661783713916415","111.334","112.015","112.391","1.057","0.376","3","51",""
"19","R_3MxQOie0e8eFzRJ","standard","1","19","LP","1.25738905644119","113.413","114.682","115.012","1.599","0.33","3","54",""
"20","R_3MxQOie0e8eFzRJ","standard","1","20","LP","5.5010771219302","116.014","121.53","121.845","5.831","0.315","3","57",""
"21","R_3MxQOie0e8eFzRJ","standard","1","21","LP","8.51632916846187","122.853","131.393","131.693","8.84","0.3","3","60",""
"22","R_3MxQOie0e8eFzRJ","standard","1","22","LP","1.25738905644119","132.709","133.982","134.348","1.639","0.366","3","63",""
"23","R_3MxQOie0e8eFzRJ","standard","1","23","LP","8.51632916846187","135.35","143.872","144.137","8.787","0.265","3","66",""
"24","R_3MxQOie0e8eFzRJ","standard","1","24","LP","0.661783713916415","145.139","145.807","146.404","1.265","0.597","3","69",""
"25","R_3MxQOie0e8eFzRJ","standard","1","25","LP","2.15079707022835","147.42","149.586","149.942","2.522","0.356","3","72",""
"26","R_3MxQOie0e8eFzRJ","standard","1","26","LP","0.264713485566566","150.955","151.222","152.098","1.143","0.876","3","75",""
"27","R_3MxQOie0e8eFzRJ","standard","1","27","LP","2.15079707022835","153.102","155.284","155.557","2.455","0.273","3","78",""
"28","R_3MxQOie0e8eFzRJ","standard","1","28","LP","0.661783713916415","156.566","157.23","157.874","1.308","0.644","3","81",""
"29","R_3MxQOie0e8eFzRJ","standard","1","29","LP","5.5010771219302","158.883","164.396","164.773","5.89","0.377","3","84",""
"30","R_3MxQOie0e8eFzRJ","standard","1","30","LP","30","165.794","195.786","196.061","30.267","0.275","3","87",""
"31","R_3MxQOie0e8eFzRJ","standard","1","31","LP","8.51632916846187","197.07","205.599","205.865","8.795","0.266","3","90",""
"32","R_3MxQOie0e8eFzRJ","standard","1","32","LP","0.661783713916415","206.885","207.551","208.495","1.61","0.944","3","93",""
"33","R_3MxQOie0e8eFzRJ","standard","1","33","LP","2.15079707022835","209.504","211.665","212.001","2.497","0.336","3","96",""
"34","R_3MxQOie0e8eFzRJ","standard","1","34","LP","8.51632916846187","213.016","221.545","221.843","8.827","0.298","3","99",""
"35","R_3MxQOie0e8eFzRJ","standard","1","35","LP","1.25738905644119","222.846","224.114","224.438","1.592","0.324","3","102",""
"36","R_3MxQOie0e8eFzRJ","standard","1","36","LP","3.49090909090909","225.462","228.96","229.3","3.838","0.34","3","105",""
"37","R_3MxQOie0e8eFzRJ","standard","1","37","LP","2.15079707022835","230.316","232.475","232.76","2.444","0.285","3","108",""
"38","R_3MxQOie0e8eFzRJ","standard","1","38","LP","5.5010771219302","233.773","239.288","239.55","5.777","0.262","3","111",""
"39","R_3MxQOie0e8eFzRJ","standard","1","39","LP","3.49090909090909","240.555","244.07","244.349","3.794","0.279","3","114",""
"40","R_3MxQOie0e8eFzRJ","standard","1","40","LP","0.661783713916415","245.35","246.018","246.355","1.005","0.337","3","117",""
"41","R_3MxQOie0e8eFzRJ","standard","1","41","LP","13.0392072382594","247.369","260.414","260.762","13.393","0.348","3","120",""
"42","R_3MxQOie0e8eFzRJ","standard","1","42","LP","13.0392072382594","261.78","274.828","275.199","13.419","0.371","3","123",""
"43","R_3MxQOie0e8eFzRJ","standard","1","43","LP","3.49090909090909","276.21","279.707","280.034","3.824","0.327","3","126",""
"44","R_3MxQOie0e8eFzRJ","standard","1","44","LP","2.15079707022835","281.041","283.205","283.541","2.5","0.336","3","129",""
"45","R_3MxQOie0e8eFzRJ","standard","1","45","LP","30","284.574","314.585","314.898","30.324","0.313","3","132",""
"46","R_3MxQOie0e8eFzRJ","standard","1","46","LP","1.25738905644119","315.911","317.19","317.505","1.594","0.315","3","135",""
"47","R_3MxQOie0e8eFzRJ","standard","1","47","LP","0.661783713916415","318.511","319.176","319.503","0.992","0.327","3","138",""
"48","R_3MxQOie0e8eFzRJ","standard","1","48","LP","2.15079707022835","320.508","322.676","323.022","2.514","0.346","3","141",""
"49","R_3MxQOie0e8eFzRJ","standard","1","49","LP","5.5010771219302","324.042","329.555","330.089","6.047","0.534","3","144",""
"50","R_3MxQOie0e8eFzRJ","standard","1","50","LP","19.8235243429556","331.106","350.934","351.475","20.369","0.541","3","147",""
"51","R_3MxQOie0e8eFzRJ","standard","1","51","LP","3.49090909090909","352.483","355.982","356.264","3.781","0.282","3","150",""
"52","R_3MxQOie0e8eFzRJ","standard","1","52","LP","19.8235243429556","357.266","377.106","377.455","20.189","0.349","3","153",""
"53","R_3MxQOie0e8eFzRJ","standard","1","53","LP","0.661783713916415","378.475","379.142","379.442","0.967","0.3","3","156",""
"54","R_3MxQOie0e8eFzRJ","standard","1","54","LP","2.15079707022835","380.446","382.621","382.932","2.486","0.311","3","159",""
"55","R_3MxQOie0e8eFzRJ","standard","1","55","LP","3.49090909090909","383.941","387.439","387.77","3.829","0.331","3","162",""
"56","R_3MxQOie0e8eFzRJ","standard","1","56","LP","13.0392072382594","388.772","401.831","402.126","13.354","0.295","3","165",""
"57","R_3MxQOie0e8eFzRJ","standard","1","57","LP","5.5010771219302","403.148","408.654","408.981","5.833","0.327","3","168",""
"58","R_3MxQOie0e8eFzRJ","standard","1","58","LP","5.5010771219302","409.996","415.51","415.824","5.828","0.314","3","171",""
"59","R_3MxQOie0e8eFzRJ","standard","1","59","LP","19.8235243429556","416.845","436.688","437.029","20.184","0.341","3","174",""
"60","R_3MxQOie0e8eFzRJ","standard","1","60","LP","30","438.039","468.045","468.377","30.338","0.332","3","177",""
"61","R_3MxQOie0e8eFzRJ","standard","1","61","LP","5.5010771219302","469.392","474.907","475.485","6.093","0.578","3","180",""
"62","R_3MxQOie0e8eFzRJ","standard","1","62","LP","0.264713485566566","476.509","476.79","477.22","0.711","0.43","3","183",""
"63","R_3MxQOie0e8eFzRJ","standard","1","63","LP","30","478.224","508.245","508.605","30.381","0.36","3","186",""
"64","R_3MxQOie0e8eFzRJ","standard","1","64","LP","19.8235243429556","509.613","529.44","529.725","20.112","0.285","3","189",""
"65","R_3MxQOie0e8eFzRJ","standard","1","65","LP","30","530.738","560.739","561.07","30.332","0.331","3","192",""
"66","R_3MxQOie0e8eFzRJ","standard","1","66","LP","19.8235243429556","562.073","581.908","582.294","20.221","0.386","3","192","11969"
"67","R_3MxQOie0e8eFzRJ","standard","1","67","LP","2.15079707022835","583.297","585.465","585.969","2.672","0.504","3","195",""
"68","R_3MxQOie0e8eFzRJ","standard","1","68","LP","30","586.976","616.994","617.481","30.505","0.487","3","198",""
"69","R_3MxQOie0e8eFzRJ","standard","1","69","LP","30","618.492","648.498","648.933","30.441","0.435","3","201",""
"70","R_3MxQOie0e8eFzRJ","standard","1","70","LP","19.8235243429556","649.944","669.775","670.183","20.239","0.408","3","204",""
"71","R_3MxQOie0e8eFzRJ","standard","1","71","LP","2.15079707022835","671.192","673.358","673.672","2.48","0.314","3","207",""
"72","R_3MxQOie0e8eFzRJ","standard","1","72","LP","0.264713485566566","674.69","674.971","675.413","0.723","0.442","3","210",""
"73","R_3MxQOie0e8eFzRJ","standard","1","73","LP","3.49090909090909","676.425","679.93","680.63","4.205","0.7","3","213",""
"74","R_3MxQOie0e8eFzRJ","standard","1","74","LP","5.5010771219302","681.642","687.171","687.593","5.951","0.422","3","216",""
"75","R_3MxQOie0e8eFzRJ","standard","1","75","LP","8.51632916846187","688.604","697.136","697.467","8.863","0.331","3","219",""
"76","R_3MxQOie0e8eFzRJ","standard","1","76","LP","30","698.483","728.49","728.813","30.33","0.323","3","222",""
"77","R_3MxQOie0e8eFzRJ","standard","1","77","LP","13.0392072382594","729.822","742.868","743.244","13.422","0.376","3","225",""
"78","R_3MxQOie0e8eFzRJ","standard","1","78","LP","3.49090909090909","744.247","747.748","748.2","3.953","0.452","3","228",""
"79","R_3MxQOie0e8eFzRJ","standard","1","79","LP","2.15079707022835","749.214","751.366","751.697","2.483","0.331","3","231",""
"80","R_3MxQOie0e8eFzRJ","standard","1","80","LP","8.51632916846187","752.717","761.238","761.525","8.808","0.287","3","234",""
"81","R_3MxQOie0e8eFzRJ","standard","1","81","LP","19.8235243429556","762.546","782.388","782.73","20.184","0.342","3","237",""
"82","R_3MxQOie0e8eFzRJ","standard","1","82","LP","1.25738905644119","783.737","785.002","785.462","1.725","0.46","3","240",""
"83","R_3MxQOie0e8eFzRJ","standard","1","83","LP","19.8235243429556","786.488","806.315","806.716","20.228","0.401","3","243",""
"84","R_3MxQOie0e8eFzRJ","standard","1","84","LP","5.5010771219302","807.727","813.23","813.624","5.897","0.394","3","246",""
"85","R_3MxQOie0e8eFzRJ","standard","1","85","LP","0.661783713916415","814.646","815.31","815.649","1.003","0.339","3","249",""
"86","R_3MxQOie0e8eFzRJ","standard","1","86","LP","30","816.66","846.665","846.96","30.3","0.295","3","252",""
"87","R_3MxQOie0e8eFzRJ","standard","1","87","LP","0.264713485566566","847.98","848.25","848.703","0.723","0.453","3","255",""
"88","R_3MxQOie0e8eFzRJ","standard","1","88","LP","19.8235243429556","849.714","869.542","869.933","20.219","0.391","3","258",""
"89","R_3MxQOie0e8eFzRJ","standard","1","89","LP","13.0392072382594","870.934","883.987","884.344","13.41","0.357","3","261",""
"90","R_3MxQOie0e8eFzRJ","standard","1","90","LP","0.661783713916415","885.355","886.022","886.425","1.07","0.403","3","264",""
"91","R_3MxQOie0e8eFzRJ","standard","2","1","LP","3.49090909090909","0","3.502","3.984","3.984","0.482","3","267",NA
"92","R_3MxQOie0e8eFzRJ","standard","2","2","LP","19.8235243429556","4.99","NaN","20.202","15.212","NaN","0","267",NA
"93","R_3MxQOie0e8eFzRJ","standard","2","3","LP","0.264713485566566","21.209","21.495","21.835","0.626","0.34","3","270",NA
"94","R_3MxQOie0e8eFzRJ","standard","2","4","LP","30","22.843","NaN","30.833","7.99","NaN","0","270",NA
"95","R_3MxQOie0e8eFzRJ","standard","2","5","LP","1.25738905644119","31.841","33.107","33.407","1.566","0.3","3","273",NA
"96","R_3MxQOie0e8eFzRJ","standard","2","6","LP","30","34.423","NaN","41.273","6.85","NaN","0","273",NA
"97","R_3MxQOie0e8eFzRJ","standard","2","7","LP","19.8235243429556","42.288","NaN","49.77","7.482","NaN","0","273",NA
"98","R_3MxQOie0e8eFzRJ","standard","2","8","LP","2.15079707022835","50.774","52.926","53.286","2.512","0.36","3","276",NA
"99","R_3MxQOie0e8eFzRJ","standard","2","9","LP","2.15079707022835","54.3","56.454","56.782","2.482","0.328","3","279",NA
"100","R_3MxQOie0e8eFzRJ","standard","2","10","LP","19.8235243429556","57.784","NaN","64.923","7.139","NaN","0","279",NA
"101","R_3MxQOie0e8eFzRJ","standard","2","11","LP","30","65.933","NaN","72.84","6.907","NaN","0","279",NA
"102","R_3MxQOie0e8eFzRJ","standard","2","12","LP","1.25738905644119","73.844","75.109","75.542","1.698","0.433","3","282",NA
"103","R_3MxQOie0e8eFzRJ","standard","2","13","LP","5.5010771219302","76.543","82.056","82.367","5.824","0.311","3","285",NA
"104","R_3MxQOie0e8eFzRJ","standard","2","14","LP","0.661783713916415","83.389","84.055","84.49","1.101","0.435","3","288",NA
"105","R_3MxQOie0e8eFzRJ","standard","2","15","LP","8.51632916846187","85.504","NaN","92.878","7.374","NaN","0","288",NA
"106","R_3MxQOie0e8eFzRJ","standard","2","16","LP","19.8235243429556","93.887","NaN","100.266","6.379","NaN","0","288",NA
"107","R_3MxQOie0e8eFzRJ","standard","2","17","LP","5.5010771219302","101.283","106.797","107.132","5.849","0.335","3","291",NA
"108","R_3MxQOie0e8eFzRJ","standard","2","18","LP","8.51632916846187","108.142","NaN","115.519","7.377","NaN","0","291",NA
"109","R_3MxQOie0e8eFzRJ","standard","2","19","LP","3.49090909090909","116.529","120.025","120.341","3.812","0.316","3","294",NA
"110","R_3MxQOie0e8eFzRJ","standard","2","20","LP","0.264713485566566","121.345","121.612","122.013","0.668","0.401","3","297",NA
"111","R_3MxQOie0e8eFzRJ","standard","2","21","LP","8.51632916846187","123.027","NaN","130.295","7.268","NaN","0","297",NA
"112","R_3MxQOie0e8eFzRJ","standard","2","22","LP","30","131.306","NaN","137.537","6.231","NaN","0","297",NA
"113","R_3MxQOie0e8eFzRJ","standard","2","23","LP","5.5010771219302","138.539","144.046","144.452","5.913","0.406","3","300",NA
"114","R_3MxQOie0e8eFzRJ","standard","2","24","LP","1.25738905644119","145.454","146.719","147.312","1.858","0.593","3","303",NA
"115","R_3MxQOie0e8eFzRJ","standard","2","25","LP","0.264713485566566","148.32","148.585","149.092","0.772","0.507","3","306",NA
"116","R_3MxQOie0e8eFzRJ","standard","2","26","LP","2.15079707022835","150.101","152.254","152.594","2.493","0.34","3","309",NA
"117","R_3MxQOie0e8eFzRJ","standard","2","27","LP","0.264713485566566","153.6","153.883","154.33","0.73","0.447","3","312",NA
"118","R_3MxQOie0e8eFzRJ","standard","2","28","LP","13.0392072382594","155.349","NaN","162.327","6.978","NaN","0","312",NA
"119","R_3MxQOie0e8eFzRJ","standard","2","29","LP","0.661783713916415","163.331","164.011","164.412","1.081","0.401","3","315",NA
"120","R_3MxQOie0e8eFzRJ","standard","2","30","LP","1.25738905644119","165.414","166.679","167.02","1.606","0.341","3","318",NA
"121","R_3MxQOie0e8eFzRJ","standard","2","31","LP","0.264713485566566","168.044","168.328","168.697","0.653","0.369","3","321",NA
"122","R_3MxQOie0e8eFzRJ","standard","2","32","LP","19.8235243429556","169.708","NaN","176.778","7.07","NaN","0","321",NA
"123","R_3MxQOie0e8eFzRJ","standard","2","33","LP","0.264713485566566","177.782","178.046","178.466","0.684","0.42","3","324",NA
"124","R_3MxQOie0e8eFzRJ","standard","2","34","LP","13.0392072382594","179.477","NaN","186.241","6.764","NaN","0","324",NA
"125","R_3MxQOie0e8eFzRJ","standard","2","35","LP","1.25738905644119","187.272","188.544","188.883","1.611","0.339","3","327",NA
"126","R_3MxQOie0e8eFzRJ","standard","2","36","LP","0.661783713916415","189.887","190.552","191.04","1.153","0.488","3","330",NA
"127","R_3MxQOie0e8eFzRJ","standard","2","37","LP","2.15079707022835","192.048","194.199","194.537","2.489","0.338","3","333",NA
"128","R_3MxQOie0e8eFzRJ","standard","2","38","LP","3.49090909090909","195.549","199.052","199.36","3.811","0.308","3","336",NA
"129","R_3MxQOie0e8eFzRJ","standard","2","39","LP","0.661783713916415","200.367","201.033","201.515","1.148","0.482","3","339",NA
"130","R_3MxQOie0e8eFzRJ","standard","2","40","LP","30","202.517","NaN","209.461","6.944","NaN","0","339",NA
"131","R_3MxQOie0e8eFzRJ","standard","2","41","LP","2.15079707022835","210.465","212.628","212.969","2.504","0.341","3","342",NA
"132","R_3MxQOie0e8eFzRJ","standard","2","42","LP","2.15079707022835","213.981","216.145","216.494","2.513","0.349","3","345",NA
"133","R_3MxQOie0e8eFzRJ","standard","2","43","LP","0.264713485566566","217.51","217.794","218.244","0.734","0.45","3","348",NA
"134","R_3MxQOie0e8eFzRJ","standard","2","44","LP","2.15079707022835","219.246","221.407","221.725","2.479","0.318","3","351",NA
"135","R_3MxQOie0e8eFzRJ","standard","2","45","LP","13.0392072382594","222.745","NaN","229.646","6.901","NaN","0","351",NA
"136","R_3MxQOie0e8eFzRJ","standard","2","46","LP","0.264713485566566","230.654","230.926","231.292","0.638","0.366","3","354",NA
"137","R_3MxQOie0e8eFzRJ","standard","2","47","LP","0.661783713916415","232.305","232.974","233.363","1.058","0.389","3","357",NA
"138","R_3MxQOie0e8eFzRJ","standard","2","48","LP","0.661783713916415","234.373","235.038","235.365","0.992","0.327","3","360",NA
"139","R_3MxQOie0e8eFzRJ","standard","2","49","LP","2.15079707022835","236.372","238.524","239.031","2.659","0.507","3","363",NA
"140","R_3MxQOie0e8eFzRJ","standard","2","50","LP","1.25738905644119","240.039","241.303","241.626","1.587","0.323","3","366",NA
"141","R_3MxQOie0e8eFzRJ","standard","2","51","LP","30","242.638","NaN","249.529","6.891","NaN","0","366",NA
"142","R_3MxQOie0e8eFzRJ","standard","2","52","LP","2.15079707022835","250.538","252.697","253.089","2.551","0.392","3","369",NA
"143","R_3MxQOie0e8eFzRJ","standard","2","53","LP","30","254.099","NaN","261.996","7.897","NaN","0","369",NA
"144","R_3MxQOie0e8eFzRJ","standard","2","54","LP","13.0392072382594","263.013","NaN","270.93","7.917","NaN","0","369",NA
"145","R_3MxQOie0e8eFzRJ","standard","2","55","LP","13.0392072382594","271.934","NaN","278.121","6.187","NaN","0","369",NA
"146","R_3MxQOie0e8eFzRJ","standard","2","56","LP","0.661783713916415","279.141","279.807","280.205","1.064","0.398","3","372",NA
"147","R_3MxQOie0e8eFzRJ","standard","2","57","LP","2.15079707022835","281.207","283.358","283.689","2.482","0.331","3","375",NA
"148","R_3MxQOie0e8eFzRJ","standard","2","58","LP","30","284.705","NaN","292.542","7.837","NaN","0","375",NA
"149","R_3MxQOie0e8eFzRJ","standard","2","59","LP","13.0392072382594","293.55","NaN","299.407","5.857","NaN","0","375",NA
"150","R_3MxQOie0e8eFzRJ","standard","2","60","LP","1.25738905644119","300.418","301.684","302.033","1.615","0.349","3","378",NA
"151","R_3MxQOie0e8eFzRJ","standard","2","61","LP","0.264713485566566","303.051","303.318","303.755","0.704","0.437","3","381",NA
"152","R_3MxQOie0e8eFzRJ","standard","2","62","LP","3.49090909090909","304.764","308.262","308.588","3.824","0.326","3","384",NA
"153","R_3MxQOie0e8eFzRJ","standard","2","63","LP","0.661783713916415","309.592","310.262","310.721","1.129","0.459","3","387",NA
"154","R_3MxQOie0e8eFzRJ","standard","2","64","LP","13.0392072382594","311.734","NaN","318.091","6.357","NaN","0","387",NA
"155","R_3MxQOie0e8eFzRJ","standard","2","65","LP","0.264713485566566","319.109","319.375","319.852","0.743","0.477","3","390",NA
"156","R_3MxQOie0e8eFzRJ","standard","2","66","LP","1.25738905644119","320.86","322.123","322.412","1.552","0.289","3","393",NA
"157","R_3MxQOie0e8eFzRJ","standard","2","67","LP","1.25738905644119","323.428","324.686","325.027","1.599","0.341","3","396",NA
"158","R_3MxQOie0e8eFzRJ","standard","2","68","LP","2.15079707022835","326.042","328.224","328.584","2.542","0.36","3","399",NA
"159","R_3MxQOie0e8eFzRJ","standard","2","69","LP","13.0392072382594","329.597","NaN","335.955","6.358","NaN","0","399",NA
"160","R_3MxQOie0e8eFzRJ","standard","2","70","LP","19.8235243429556","336.972","NaN","343.02","6.048","NaN","0","399",NA
"161","R_3MxQOie0e8eFzRJ","standard","2","71","LP","13.0392072382594","344.034","NaN","350.141","6.107","NaN","0","399",NA
"162","R_3MxQOie0e8eFzRJ","standard","2","72","LP","2.15079707022835","351.151","353.315","353.71","2.559","0.395","3","402",NA
"163","R_3MxQOie0e8eFzRJ","standard","2","73","LP","0.264713485566566","354.713","354.983","355.324","0.611","0.341","3","405",NA
"164","R_3MxQOie0e8eFzRJ","standard","2","74","LP","19.8235243429556","356.33","NaN","362.701","6.371","NaN","0","405",NA
"165","R_3MxQOie0e8eFzRJ","standard","2","75","LP","8.51632916846187","363.711","NaN","369.97","6.259","NaN","0","405",NA
"166","R_3MxQOie0e8eFzRJ","standard","2","76","LP","0.661783713916415","370.975","371.638","372.063","1.088","0.425","3","408",NA
"167","R_3MxQOie0e8eFzRJ","standard","2","77","LP","30","373.077","NaN","379.084","6.007","NaN","0","408",NA
"168","R_3MxQOie0e8eFzRJ","standard","2","78","LP","8.51632916846187","380.089","NaN","386.028","5.939","NaN","0","408",NA
"169","R_3MxQOie0e8eFzRJ","standard","2","79","LP","1.25738905644119","387.04","388.304","388.655","1.615","0.351","3","411",NA
"170","R_3MxQOie0e8eFzRJ","standard","2","80","LP","30","389.662","NaN","395.477","5.815","NaN","0","411",NA
"171","R_3MxQOie0e8eFzRJ","standard","2","81","LP","19.8235243429556","396.5","NaN","402.402","5.902","NaN","0","411",NA
"172","R_3MxQOie0e8eFzRJ","standard","2","82","LP","5.5010771219302","403.415","408.917","409.208","5.793","0.291","3","414",NA
"173","R_3MxQOie0e8eFzRJ","standard","2","83","LP","19.8235243429556","410.213","NaN","416.321","6.108","NaN","0","414",NA
"174","R_3MxQOie0e8eFzRJ","standard","2","84","LP","3.49090909090909","417.33","420.828","421.261","3.931","0.433","3","417",NA
"175","R_3MxQOie0e8eFzRJ","standard","2","85","LP","0.661783713916415","422.275","422.941","423.419","1.144","0.478","3","420",NA
"176","R_3MxQOie0e8eFzRJ","standard","2","86","LP","0.264713485566566","424.426","424.707","425.048","0.622","0.341","3","423",NA
"177","R_3MxQOie0e8eFzRJ","standard","2","87","LP","3.49090909090909","426.054","429.557","429.905","3.851","0.348","3","426",NA
"178","R_3MxQOie0e8eFzRJ","standard","2","88","LP","2.15079707022835","430.908","433.072","433.417","2.509","0.345","3","429",NA
"179","R_3MxQOie0e8eFzRJ","standard","2","89","LP","0.264713485566566","434.423","434.704","435.08","0.657","0.376","3","432",NA
"180","R_3MxQOie0e8eFzRJ","standard","2","90","LP","19.8235243429556","436.088","NaN","442.099","6.011","NaN","0","432",NA
"181","R_3MxQOie0e8eFzRJ","standard","2","91","LP","0.264713485566566","443.116","443.386","443.713","0.597","0.327","3","435",NA
"182","R_3MxQOie0e8eFzRJ","standard","2","92","LP","2.15079707022835","444.718","NaN","445.088","0.37","NaN","0","435",NA
"183","R_3MxQOie0e8eFzRJ","standard","2","93","LP","19.8235243429556","446.101","NaN","451.944","5.843","NaN","0","435",NA
"184","R_3MxQOie0e8eFzRJ","standard","2","94","LP","2.15079707022835","452.948","455.114","455.593","2.645","0.479","3","438",NA
"185","R_3MxQOie0e8eFzRJ","standard","2","95","LP","5.5010771219302","456.613","462.115","462.518","5.905","0.403","3","441",NA
"186","R_3MxQOie0e8eFzRJ","standard","2","96","LP","2.15079707022835","463.519","465.679","466.14","2.621","0.461","3","444",NA
"187","R_3MxQOie0e8eFzRJ","standard","2","97","LP","13.0392072382594","467.142","NaN","472.829","5.687","NaN","0","444",NA
"188","R_3MxQOie0e8eFzRJ","standard","2","98","LP","13.0392072382594","473.841","NaN","479.25","5.409","NaN","0","444",NA
"189","R_3MxQOie0e8eFzRJ","standard","2","99","LP","2.15079707022835","480.254","482.421","482.829","2.575","0.408","3","447",NA
"190","R_3MxQOie0e8eFzRJ","standard","2","100","LP","30","483.839","NaN","489.364","5.525","NaN","0","447",NA
"191","R_3MxQOie0e8eFzRJ","standard","2","101","LP","1.25738905644119","490.371","491.637","492.038","1.667","0.401","3","450",NA
"192","R_3MxQOie0e8eFzRJ","standard","2","102","LP","30","493.046","NaN","498.379","5.333","NaN","0","450",NA
"193","R_3MxQOie0e8eFzRJ","standard","2","103","LP","1.25738905644119","499.386","500.65","501.022","1.636","0.372","3","453",NA
"194","R_3MxQOie0e8eFzRJ","standard","2","104","LP","0.661783713916415","502.035","502.714","503.131","1.096","0.417","3","456",NA
"195","R_3MxQOie0e8eFzRJ","standard","2","105","LP","19.8235243429556","504.134","NaN","509.594","5.46","NaN","0","456",NA
"196","R_3MxQOie0e8eFzRJ","standard","2","106","LP","19.8235243429556","510.611","NaN","515.806","5.195","NaN","0","456",NA
"197","R_3MxQOie0e8eFzRJ","standard","2","107","LP","8.51632916846187","516.81","NaN","522.1","5.29","NaN","0","456",NA
"198","R_3MxQOie0e8eFzRJ","standard","2","108","LP","30","523.112","NaN","528.431","5.319","NaN","0","456",NA
"199","R_3MxQOie0e8eFzRJ","standard","2","109","LP","5.5010771219302","529.44","NaN","534.7","5.26","NaN","0","456",NA
"200","R_3MxQOie0e8eFzRJ","standard","2","110","LP","3.49090909090909","535.704","539.202","539.631","3.927","0.429","3","459",NA
"201","R_3MxQOie0e8eFzRJ","standard","2","111","LP","19.8235243429556","540.637","NaN","546.116","5.479","NaN","0","459",NA
"202","R_3MxQOie0e8eFzRJ","standard","2","112","LP","0.264713485566566","547.118","547.385","547.945","0.827","0.56","3","462",NA
"203","R_3MxQOie0e8eFzRJ","standard","2","113","LP","3.49090909090909","548.951","552.45","552.804","3.853","0.354","3","465",NA
"204","R_3MxQOie0e8eFzRJ","standard","2","114","LP","0.661783713916415","553.814","554.482","555.384","1.57","0.902","3","468",NA
"205","R_3MxQOie0e8eFzRJ","standard","2","115","LP","13.0392072382594","556.397","NaN","561.773","5.376","NaN","0","468",NA
"206","R_3MxQOie0e8eFzRJ","standard","2","116","LP","5.5010771219302","562.778","NaN","566.039","3.261","NaN","0","468",NA
"207","R_3MxQOie0e8eFzRJ","standard","2","117","LP","1.25738905644119","567.044","568.31","568.757","1.713","0.447","3","471",NA
"208","R_3MxQOie0e8eFzRJ","standard","2","118","LP","13.0392072382594","569.761","NaN","572.887","3.126","NaN","0","471",NA
"209","R_3MxQOie0e8eFzRJ","standard","2","119","LP","3.49090909090909","573.907","NaN","577.033","3.126","NaN","0","471",NA
"210","R_3MxQOie0e8eFzRJ","standard","2","120","LP","19.8235243429556","578.038","NaN","581.185","3.147","NaN","0","471",NA
"211","R_3MxQOie0e8eFzRJ","standard","2","121","LP","5.5010771219302","582.203","NaN","585.524","3.321","NaN","0","471",NA
"212","R_3MxQOie0e8eFzRJ","standard","2","122","LP","5.5010771219302","586.538","NaN","592.026","5.488","NaN","0","471",NA
"213","R_3MxQOie0e8eFzRJ","standard","2","123","LP","0.264713485566566","593.031","593.316","593.775","0.744","0.459","3","474",NA
