"","subject_id","condition","n_block","n_trialIdx","f_timing_condition","n_scheduled_delay","n_trial_start_time","n_rewarded_time_fin","n_sell_time_fin","n_time_waited_fin","RT_fin","n_trial_earnings_fin","n_total_earnings_fin","keypress_times"
"1","R_3nNobjpXnR1J5Ku","standard","1","1","LP","0.661783713916415","0.002","0.669","1.286","1.284","0.617","3","3",""
"2","R_3nNobjpXnR1J5Ku","standard","1","2","LP","0.264713485566566","2.302","2.586","3.029","0.727","0.443","3","6",""
"3","R_3nNobjpXnR1J5Ku","standard","1","3","LP","2.15079707022835","4.039","6.198","6.613","2.574","0.415","3","9",""
"4","R_3nNobjpXnR1J5Ku","standard","1","4","LP","30","7.615","37.623","38.086","30.471","0.463","3","12",""
"5","R_3nNobjpXnR1J5Ku","standard","1","5","LP","13.0392072382594","39.099","52.144","52.566","13.467","0.422","3","15",""
"6","R_3nNobjpXnR1J5Ku","standard","1","6","LP","5.5010771219302","53.574","59.091","59.669","6.095","0.578","3","18",""
"7","R_3nNobjpXnR1J5Ku","standard","1","7","LP","19.8235243429556","60.683","80.519","80.918","20.235","0.399","3","21",""
"8","R_3nNobjpXnR1J5Ku","standard","1","8","LP","13.0392072382594","81.929","94.981","95.445","13.516","0.464","3","24",""
"9","R_3nNobjpXnR1J5Ku","standard","1","9","LP","0.661783713916415","96.448","97.124","NA","1.679","NA","0","24",""
"10","R_3nNobjpXnR1J5Ku","standard","1","10","LP","0.661783713916415","99.139","99.81","100.357","1.218","0.547","3","27",""
"11","R_3nNobjpXnR1J5Ku","standard","1","11","LP","5.5010771219302","101.38","106.899","107.302","5.922","0.403","3","30",""
"12","R_3nNobjpXnR1J5Ku","standard","1","12","LP","1.25738905644119","108.316","109.582","110.005","1.689","0.423","3","33",""
"13","R_3nNobjpXnR1J5Ku","standard","1","13","LP","19.8235243429556","111.011","130.838","131.285","20.274","0.447","3","36",""
"14","R_3nNobjpXnR1J5Ku","standard","1","14","LP","30","132.299","162.301","162.693","30.394","0.392","3","39",""
"15","R_3nNobjpXnR1J5Ku","standard","1","15","LP","3.49090909090909","163.702","167.197","167.604","3.902","0.407","3","42",""
"16","R_3nNobjpXnR1J5Ku","standard","1","16","LP","0.661783713916415","168.606","169.276","169.861","1.255","0.585","3","45",""
"17","R_3nNobjpXnR1J5Ku","standard","1","17","LP","0.661783713916415","170.87","171.534","171.925","1.055","0.391","3","48",""
"18","R_3nNobjpXnR1J5Ku","standard","1","18","LP","1.25738905644119","172.934","174.198","174.581","1.647","0.383","3","51",""
"19","R_3nNobjpXnR1J5Ku","standard","1","19","LP","2.15079707022835","175.596","177.746","178.325","2.729","0.579","3","54",""
"20","R_3nNobjpXnR1J5Ku","standard","1","20","LP","0.264713485566566","179.336","179.619","180.053","0.717","0.434","3","57",""
"21","R_3nNobjpXnR1J5Ku","standard","1","21","LP","13.0392072382594","181.062","194.114","194.565","13.503","0.451","3","60",""
"22","R_3nNobjpXnR1J5Ku","standard","1","22","LP","5.5010771219302","195.584","201.099","201.525","5.941","0.426","3","63",""
"23","R_3nNobjpXnR1J5Ku","standard","1","23","LP","8.51632916846187","202.538","211.062","211.477","8.939","0.415","3","66",""
"24","R_3nNobjpXnR1J5Ku","standard","1","24","LP","5.5010771219302","212.482","218.002","218.341","5.859","0.339","3","69",""
"25","R_3nNobjpXnR1J5Ku","standard","1","25","LP","0.661783713916415","219.353","220.028","220.485","1.132","0.457","3","72",""
"26","R_3nNobjpXnR1J5Ku","standard","1","26","LP","2.15079707022835","221.499","223.655","224.085","2.586","0.43","3","75",""
"27","R_3nNobjpXnR1J5Ku","standard","1","27","LP","2.15079707022835","225.107","227.276","227.685","2.578","0.409","3","78",""
"28","R_3nNobjpXnR1J5Ku","standard","1","28","LP","13.0392072382594","228.694","241.744","242.213","13.519","0.469","3","81",""
"29","R_3nNobjpXnR1J5Ku","standard","1","29","LP","0.661783713916415","243.216","243.889","244.581","1.365","0.692","3","84",""
"30","R_3nNobjpXnR1J5Ku","standard","1","30","LP","3.49090909090909","245.604","249.104","249.509","3.905","0.405","3","87",""
"31","R_3nNobjpXnR1J5Ku","standard","1","31","LP","0.264713485566566","250.522","250.79","NA","1.283","NA","0","87",""
"32","R_3nNobjpXnR1J5Ku","standard","1","32","LP","0.264713485566566","252.818","253.096","253.509","0.691","0.413","3","90",""
"33","R_3nNobjpXnR1J5Ku","standard","1","33","LP","13.0392072382594","254.51","267.553","268.053","13.543","0.5","3","93",""
"34","R_3nNobjpXnR1J5Ku","standard","1","34","LP","13.0392072382594","269.071","282.123","282.517","13.446","0.394","3","96",""
"35","R_3nNobjpXnR1J5Ku","standard","1","35","LP","2.15079707022835","283.528","285.692","286.341","2.813","0.649","3","96","733"
"36","R_3nNobjpXnR1J5Ku","standard","1","36","LP","8.51632916846187","287.352","295.872","296.325","8.973","0.453","3","96","5821"
"37","R_3nNobjpXnR1J5Ku","standard","1","37","LP","0.264713485566566","297.332","297.602","298.053","0.721","0.451","3","99",""
"38","R_3nNobjpXnR1J5Ku","standard","1","38","LP","1.25738905644119","299.076","300.352","300.869","1.793","0.517","3","102",""
"39","R_3nNobjpXnR1J5Ku","standard","1","39","LP","1.25738905644119","301.881","303.138","303.557","1.676","0.419","3","105",""
"40","R_3nNobjpXnR1J5Ku","standard","1","40","LP","5.5010771219302","304.567","310.082","310.549","5.982","0.467","3","108",""
"41","R_3nNobjpXnR1J5Ku","standard","1","41","LP","0.264713485566566","311.558","311.83","312.405","0.847","0.575","3","111",""
"42","R_3nNobjpXnR1J5Ku","standard","1","42","LP","30","313.406","343.407","343.797","30.391","0.39","3","114",""
"43","R_3nNobjpXnR1J5Ku","standard","1","43","LP","13.0392072382594","344.815","357.863","358.309","13.494","0.446","3","117",""
"44","R_3nNobjpXnR1J5Ku","standard","1","44","LP","5.5010771219302","359.322","364.844","365.269","5.947","0.425","3","120",""
"45","R_3nNobjpXnR1J5Ku","standard","1","45","LP","13.0392072382594","366.288","379.33","379.861","13.573","0.531","3","123",""
"46","R_3nNobjpXnR1J5Ku","standard","1","46","LP","19.8235243429556","380.87","400.712","401.125","20.255","0.413","3","126",""
"47","R_3nNobjpXnR1J5Ku","standard","1","47","LP","5.5010771219302","402.125","407.643","408.085","5.96","0.442","3","129",""
"48","R_3nNobjpXnR1J5Ku","standard","1","48","LP","5.5010771219302","409.1","414.616","414.996","5.896","0.38","3","132",""
"49","R_3nNobjpXnR1J5Ku","standard","1","49","LP","13.0392072382594","416.006","429.054","429.556","13.55","0.502","3","135",""
"50","R_3nNobjpXnR1J5Ku","standard","1","50","LP","2.15079707022835","430.57","432.723","433.3","2.73","0.577","3","138",""
"51","R_3nNobjpXnR1J5Ku","standard","1","51","LP","30","434.307","464.31","464.66","30.353","0.35","3","141",""
"52","R_3nNobjpXnR1J5Ku","standard","1","52","LP","1.25738905644119","465.67","466.934","467.492","1.822","0.558","3","144",""
"53","R_3nNobjpXnR1J5Ku","standard","1","53","LP","19.8235243429556","468.509","488.34","488.789","20.28","0.449","3","147",""
"54","R_3nNobjpXnR1J5Ku","standard","1","54","LP","8.51632916846187","489.801","498.333","498.821","9.02","0.488","3","150",""
"55","R_3nNobjpXnR1J5Ku","standard","1","55","LP","30","499.821","529.822","530.229","30.408","0.407","3","153",""
"56","R_3nNobjpXnR1J5Ku","standard","1","56","LP","2.15079707022835","531.233","533.395","533.876","2.643","0.481","3","156",""
"57","R_3nNobjpXnR1J5Ku","standard","1","57","LP","30","534.89","564.894","565.269","30.379","0.375","3","159",""
"58","R_3nNobjpXnR1J5Ku","standard","1","58","LP","30","566.278","596.292","596.725","30.447","0.433","3","159","4622"
"59","R_3nNobjpXnR1J5Ku","standard","1","59","LP","1.25738905644119","597.729","598.99","599.716","1.987","0.726","3","162",""
"60","R_3nNobjpXnR1J5Ku","standard","1","60","LP","8.51632916846187","600.728","609.254","609.653","8.925","0.399","3","165",""
"61","R_3nNobjpXnR1J5Ku","standard","1","61","LP","19.8235243429556","610.663","630.502","630.996","20.333","0.494","3","165","15950"
"62","R_3nNobjpXnR1J5Ku","standard","1","62","LP","13.0392072382594","632.002","645.046","645.493","13.491","0.447","3","168",""
"63","R_3nNobjpXnR1J5Ku","standard","1","63","LP","0.661783713916415","646.502","647.179","647.748","1.246","0.569","3","171",""
"64","R_3nNobjpXnR1J5Ku","standard","1","64","LP","0.264713485566566","648.75","649.02","649.572","0.822","0.552","3","174",""
"65","R_3nNobjpXnR1J5Ku","standard","1","65","LP","3.49090909090909","650.584","654.083","654.516","3.932","0.433","3","177",""
"66","R_3nNobjpXnR1J5Ku","standard","1","66","LP","5.5010771219302","655.525","661.029","661.524","5.999","0.495","3","180",""
"67","R_3nNobjpXnR1J5Ku","standard","1","67","LP","3.49090909090909","662.543","666.048","666.484","3.941","0.436","3","183",""
"68","R_3nNobjpXnR1J5Ku","standard","1","68","LP","19.8235243429556","667.497","687.328","687.812","20.315","0.484","3","186",""
"69","R_3nNobjpXnR1J5Ku","standard","1","69","LP","19.8235243429556","688.825","708.665","709.061","20.236","0.396","3","189",""
"70","R_3nNobjpXnR1J5Ku","standard","1","70","LP","3.49090909090909","710.067","713.566","714.148","4.081","0.582","3","192",""
"71","R_3nNobjpXnR1J5Ku","standard","1","71","LP","19.8235243429556","715.149","734.974","735.461","20.312","0.487","3","195",""
"72","R_3nNobjpXnR1J5Ku","standard","1","72","LP","0.264713485566566","736.478","736.751","737.22","0.742","0.469","3","198",""
"73","R_3nNobjpXnR1J5Ku","standard","1","73","LP","0.264713485566566","738.228","738.494","738.932","0.704","0.438","3","201",""
"74","R_3nNobjpXnR1J5Ku","standard","1","74","LP","8.51632916846187","739.941","748.476","749.013","9.072","0.537","3","204",""
"75","R_3nNobjpXnR1J5Ku","standard","1","75","LP","8.51632916846187","750.032","758.564","759.077","9.045","0.513","3","207",""
"76","R_3nNobjpXnR1J5Ku","standard","1","76","LP","19.8235243429556","760.091","779.927","780.437","20.346","0.51","3","210",""
"77","R_3nNobjpXnR1J5Ku","standard","1","77","LP","3.49090909090909","781.449","784.947","785.412","3.963","0.465","3","213",""
"78","R_3nNobjpXnR1J5Ku","standard","1","78","LP","19.8235243429556","786.42","806.259","806.74","20.32","0.481","3","216",""
"79","R_3nNobjpXnR1J5Ku","standard","1","79","LP","13.0392072382594","807.742","820.798","821.364","13.622","0.566","3","219",""
"80","R_3nNobjpXnR1J5Ku","standard","1","80","LP","2.15079707022835","822.376","824.542","825.012","2.636","0.47","3","222",""
"81","R_3nNobjpXnR1J5Ku","standard","1","81","LP","1.25738905644119","826.027","827.291","827.908","1.881","0.617","3","225",""
"82","R_3nNobjpXnR1J5Ku","standard","1","82","LP","13.0392072382594","828.91","841.962","842.388","13.478","0.426","3","228",""
"83","R_3nNobjpXnR1J5Ku","standard","1","83","LP","5.5010771219302","843.403","848.918","849.476","6.073","0.558","3","231",""
"84","R_3nNobjpXnR1J5Ku","standard","1","84","LP","30","850.492","880.504","880.948","30.456","0.444","3","234",""
"85","R_3nNobjpXnR1J5Ku","standard","1","85","LP","2.15079707022835","881.965","884.117","884.66","2.695","0.543","3","237",""
"86","R_3nNobjpXnR1J5Ku","standard","2","1","LP","2.15079707022835","0","2.157","2.547","2.547","0.39","3","240",NA
"87","R_3nNobjpXnR1J5Ku","standard","2","2","LP","1.25738905644119","3.55","NaN","4.227","0.677","NaN","0","240",NA
"88","R_3nNobjpXnR1J5Ku","standard","2","3","LP","5.5010771219302","5.229","NaN","6.243","1.014","NaN","0","240",NA
"89","R_3nNobjpXnR1J5Ku","standard","2","4","LP","0.264713485566566","7.245","7.523",NA,"1.279",NA,"0","240",NA
"90","R_3nNobjpXnR1J5Ku","standard","2","5","LP","19.8235243429556","9.54","NaN","9.763","0.223","NaN","0","240",NA
"91","R_3nNobjpXnR1J5Ku","standard","2","6","LP","0.264713485566566","10.77","11.041",NA,"1.273",NA,"0","240",NA
"92","R_3nNobjpXnR1J5Ku","standard","2","7","LP","19.8235243429556","13.043","NaN","13.331","0.288","NaN","0","240",NA
"93","R_3nNobjpXnR1J5Ku","standard","2","8","LP","19.8235243429556","14.333","NaN","14.898","0.565","NaN","0","240",NA
"94","R_3nNobjpXnR1J5Ku","standard","2","9","LP","0.661783713916415","15.901","NaN","16.531","0.63","NaN","0","240",NA
"95","R_3nNobjpXnR1J5Ku","standard","2","10","LP","0.661783713916415","17.546","NaN","17.907","0.361","NaN","0","240",NA
"96","R_3nNobjpXnR1J5Ku","standard","2","11","LP","19.8235243429556","18.916","NaN","19.363","0.447","NaN","0","240",NA
"97","R_3nNobjpXnR1J5Ku","standard","2","12","LP","5.5010771219302","20.379","NaN","22.499","2.12","NaN","0","240",NA
"98","R_3nNobjpXnR1J5Ku","standard","2","13","LP","0.264713485566566","23.513","23.781",NA,"1.282",NA,"0","240",NA
"99","R_3nNobjpXnR1J5Ku","standard","2","14","LP","1.25738905644119","25.798","NaN","26.803","1.005","NaN","0","240",NA
"100","R_3nNobjpXnR1J5Ku","standard","2","15","LP","1.25738905644119","27.805","29.069",NA,"2.28",NA,"0","240",NA
"101","R_3nNobjpXnR1J5Ku","standard","2","16","LP","1.25738905644119","31.093","32.368","32.515","1.422","0.147","3","243",NA
"102","R_3nNobjpXnR1J5Ku","standard","2","17","LP","30","33.528","NaN","33.843","0.315","NaN","0","243",NA
"103","R_3nNobjpXnR1J5Ku","standard","2","18","LP","2.15079707022835","34.851","NaN","36.051","1.2","NaN","0","243",NA
"104","R_3nNobjpXnR1J5Ku","standard","2","19","LP","0.661783713916415","37.063","37.727",NA,"1.675",NA,"0","243",NA
"105","R_3nNobjpXnR1J5Ku","standard","2","20","LP","5.5010771219302","39.744","NaN","42.467","2.723","NaN","0","243",NA
"106","R_3nNobjpXnR1J5Ku","standard","2","21","LP","8.51632916846187","43.476","NaN","50.371","6.895","NaN","0","243",NA
"107","R_3nNobjpXnR1J5Ku","standard","2","22","LP","0.661783713916415","51.378","52.054",NA,"1.683",NA,"0","243",NA
"108","R_3nNobjpXnR1J5Ku","standard","2","23","LP","3.49090909090909","54.069","57.569",NA,"4.504",NA,"0","243",NA
"109","R_3nNobjpXnR1J5Ku","standard","2","24","LP","8.51632916846187","59.59","NaN","65.283","5.693","NaN","0","243",NA
"110","R_3nNobjpXnR1J5Ku","standard","2","25","LP","8.51632916846187","66.285","74.806","75.635","9.35","0.829","3","246",NA
"111","R_3nNobjpXnR1J5Ku","standard","2","26","LP","19.8235243429556","76.637","96.476","97.139","20.502","0.663","3","249",NA
"112","R_3nNobjpXnR1J5Ku","standard","2","27","LP","5.5010771219302","98.142","103.659","104.227","6.085","0.568","3","252",NA
"113","R_3nNobjpXnR1J5Ku","standard","2","28","LP","5.5010771219302","105.229","110.733","111.267","6.038","0.534","3","255",NA
"114","R_3nNobjpXnR1J5Ku","standard","2","29","LP","0.661783713916415","112.283","112.959","113.474","1.191","0.515","3","258",NA
"115","R_3nNobjpXnR1J5Ku","standard","2","30","LP","1.25738905644119","114.475","115.746","116.211","1.736","0.465","3","261",NA
"116","R_3nNobjpXnR1J5Ku","standard","2","31","LP","0.661783713916415","117.222","117.886","118.323","1.101","0.437","3","264",NA
"117","R_3nNobjpXnR1J5Ku","standard","2","32","LP","3.49090909090909","119.328","NaN","120.163","0.835","NaN","0","264",NA
"118","R_3nNobjpXnR1J5Ku","standard","2","33","LP","13.0392072382594","121.165","134.205","134.643","13.478","0.438","3","267",NA
"119","R_3nNobjpXnR1J5Ku","standard","2","34","LP","13.0392072382594","135.646","148.699","149.122","13.476","0.423","3","270",NA
"120","R_3nNobjpXnR1J5Ku","standard","2","35","LP","8.51632916846187","150.126","NaN","150.85","0.724","NaN","0","270",NA
"121","R_3nNobjpXnR1J5Ku","standard","2","36","LP","3.49090909090909","151.86","155.369","155.762","3.902","0.393","3","273",NA
"122","R_3nNobjpXnR1J5Ku","standard","2","37","LP","13.0392072382594","156.772","169.82","170.322","13.55","0.502","3","276",NA
"123","R_3nNobjpXnR1J5Ku","standard","2","38","LP","8.51632916846187","171.325","179.846","180.289","8.964","0.443","3","279",NA
"124","R_3nNobjpXnR1J5Ku","standard","2","39","LP","19.8235243429556","181.298","201.13","201.618","20.32","0.488","3","282",NA
"125","R_3nNobjpXnR1J5Ku","standard","2","40","LP","5.5010771219302","202.63","208.138","208.611","5.981","0.473","3","285",NA
"126","R_3nNobjpXnR1J5Ku","standard","2","41","LP","19.8235243429556","209.622","229.46","229.923","20.301","0.463","3","288",NA
"127","R_3nNobjpXnR1J5Ku","standard","2","42","LP","5.5010771219302","230.938","NaN","231.01","0.072","NaN","0","288",NA
"128","R_3nNobjpXnR1J5Ku","standard","2","43","LP","0.661783713916415","232.027","232.701","233.202","1.175","0.501","3","291",NA
"129","R_3nNobjpXnR1J5Ku","standard","2","44","LP","1.25738905644119","234.208","235.479","235.986","1.778","0.507","3","294",NA
"130","R_3nNobjpXnR1J5Ku","standard","2","45","LP","13.0392072382594","236.989","250.03","250.547","13.558","0.517","3","297",NA
"131","R_3nNobjpXnR1J5Ku","standard","2","46","LP","2.15079707022835","251.549","253.701","254.194","2.645","0.493","3","300",NA
"132","R_3nNobjpXnR1J5Ku","standard","2","47","LP","0.264713485566566","255.197","255.462","255.923","0.726","0.461","3","303",NA
"133","R_3nNobjpXnR1J5Ku","standard","2","48","LP","0.661783713916415","256.928","257.597","258.018","1.09","0.421","3","306",NA
"134","R_3nNobjpXnR1J5Ku","standard","2","49","LP","30","259.031","NaN","269.283","10.252","NaN","0","306",NA
"135","R_3nNobjpXnR1J5Ku","standard","2","50","LP","8.51632916846187","270.285","278.818","279.475","9.19","0.657","3","309",NA
"136","R_3nNobjpXnR1J5Ku","standard","2","51","LP","0.661783713916415","280.49","281.157","281.698","1.208","0.541","3","312",NA
"137","R_3nNobjpXnR1J5Ku","standard","2","52","LP","2.15079707022835","282.701","284.853","285.25","2.549","0.397","3","315",NA
"138","R_3nNobjpXnR1J5Ku","standard","2","53","LP","5.5010771219302","286.255","291.765","292.323","6.068","0.558","3","318",NA
"139","R_3nNobjpXnR1J5Ku","standard","2","54","LP","2.15079707022835","293.331","295.485","296.034","2.703","0.549","3","321",NA
"140","R_3nNobjpXnR1J5Ku","standard","2","55","LP","19.8235243429556","297.037","316.869","317.411","20.374","0.542","3","324",NA
"141","R_3nNobjpXnR1J5Ku","standard","2","56","LP","2.15079707022835","318.422","320.594","321.09","2.668","0.496","3","327",NA
"142","R_3nNobjpXnR1J5Ku","standard","2","57","LP","2.15079707022835","322.106","324.262","324.706","2.6","0.444","3","330",NA
"143","R_3nNobjpXnR1J5Ku","standard","2","58","LP","30","325.713","355.718","356.147","30.434","0.429","3","333",NA
"144","R_3nNobjpXnR1J5Ku","standard","2","59","LP","5.5010771219302","357.152","362.661","363.122","5.97","0.461","3","336",NA
"145","R_3nNobjpXnR1J5Ku","standard","2","60","LP","3.49090909090909","364.131","367.626","368.067","3.936","0.441","3","339",NA
"146","R_3nNobjpXnR1J5Ku","standard","2","61","LP","8.51632916846187","369.069","377.589","378.323","9.254","0.734","3","342",NA
"147","R_3nNobjpXnR1J5Ku","standard","2","62","LP","30","379.323","409.327","409.73","30.407","0.403","3","345",NA
"148","R_3nNobjpXnR1J5Ku","standard","2","63","LP","30","410.74","NaN","427.506","16.766","NaN","0","345",NA
"149","R_3nNobjpXnR1J5Ku","standard","2","64","LP","13.0392072382594","428.513","NaN","436.994","8.481","NaN","0","345",NA
"150","R_3nNobjpXnR1J5Ku","standard","2","65","LP","0.661783713916415","438.003","438.678","439.251","1.248","0.573","3","348",NA
"151","R_3nNobjpXnR1J5Ku","standard","2","66","LP","13.0392072382594","440.253","453.301","453.682","13.429","0.381","3","351",NA
"152","R_3nNobjpXnR1J5Ku","standard","2","67","LP","13.0392072382594","454.685","467.737","468.242","13.557","0.505","3","354",NA
"153","R_3nNobjpXnR1J5Ku","standard","2","68","LP","5.5010771219302","469.245","474.749","475.266","6.021","0.517","3","357",NA
"154","R_3nNobjpXnR1J5Ku","standard","2","69","LP","0.661783713916415","476.269","476.935","477.474","1.205","0.539","3","360",NA
"155","R_3nNobjpXnR1J5Ku","standard","2","70","LP","19.8235243429556","478.479","498.311","498.914","20.435","0.603","3","363",NA
"156","R_3nNobjpXnR1J5Ku","standard","2","71","LP","3.49090909090909","499.927","503.426","503.858","3.931","0.432","3","366",NA
"157","R_3nNobjpXnR1J5Ku","standard","2","72","LP","0.661783713916415","504.862","505.526","506.034","1.172","0.508","3","369",NA
"158","R_3nNobjpXnR1J5Ku","standard","2","73","LP","2.15079707022835","507.036","509.194","509.682","2.646","0.488","3","372",NA
"159","R_3nNobjpXnR1J5Ku","standard","2","74","LP","8.51632916846187","510.693","519.215","519.858","9.165","0.643","3","375",NA
"160","R_3nNobjpXnR1J5Ku","standard","2","75","LP","3.49090909090909","520.864","524.363",NA,"4.506",NA,"0","375",NA
"161","R_3nNobjpXnR1J5Ku","standard","2","76","LP","3.49090909090909","526.373","529.883","530.498","4.125","0.615","3","378",NA
"162","R_3nNobjpXnR1J5Ku","standard","2","77","LP","3.49090909090909","531.504","534.997",NA,"4.504",NA,"0","378",NA
"163","R_3nNobjpXnR1J5Ku","standard","2","78","LP","3.49090909090909","537.014","540.509","540.994","3.98","0.485","3","381",NA
"164","R_3nNobjpXnR1J5Ku","standard","2","79","LP","19.8235243429556","541.997","561.833","562.338","20.341","0.505","3","384",NA
"165","R_3nNobjpXnR1J5Ku","standard","2","80","LP","0.661783713916415","563.342","564.018","564.45","1.108","0.432","3","387",NA
"166","R_3nNobjpXnR1J5Ku","standard","2","81","LP","13.0392072382594","565.454","578.5","578.994","13.54","0.494","3","390",NA
"167","R_3nNobjpXnR1J5Ku","standard","2","82","LP","2.15079707022835","580.005","582.167","582.626","2.621","0.459","3","393",NA
"168","R_3nNobjpXnR1J5Ku","standard","2","83","LP","13.0392072382594","583.632","596.684","597.122","13.49","0.438","3","396",NA
"169","R_3nNobjpXnR1J5Ku","standard","2","84","LP","1.25738905644119","598.134","599.397","599.874","1.74","0.477","3","399",NA
