"","subject_id","condition","n_block","n_trialIdx","f_timing_condition","n_scheduled_delay","n_trial_start_time","n_rewarded_time_fin","n_sell_time_fin","n_time_waited_fin","RT_fin","n_trial_earnings_fin","n_total_earnings_fin","keypress_times"
"1","R_3O7xmq5KkbW5Bcr","standard","1","1","HP","18","0.001","18.006","18.395","18.394","0.389","3","3",""
"2","R_3O7xmq5KkbW5Bcr","standard","1","2","HP","8","19.403","27.405","27.855","8.452","0.45","3","6",""
"3","R_3O7xmq5KkbW5Bcr","standard","1","3","HP","14","28.86","42.866","43.401","14.541","0.535","3","9",""
"4","R_3O7xmq5KkbW5Bcr","standard","1","4","HP","6","44.402","50.407","51.177","6.775","0.77","3","12",""
"5","R_3O7xmq5KkbW5Bcr","standard","1","5","HP","18","52.19","70.194","70.615","18.425","0.421","3","15",""
"6","R_3O7xmq5KkbW5Bcr","standard","1","6","HP","18","71.616","89.624","89.999","18.383","0.375","3","18",""
"7","R_3O7xmq5KkbW5Bcr","standard","1","7","HP","20","91","111.001","111.483","20.483","0.482","3","21",""
"8","R_3O7xmq5KkbW5Bcr","standard","1","8","HP","20","112.488","132.493","133.023","20.535","0.53","3","24",""
"9","R_3O7xmq5KkbW5Bcr","standard","1","9","HP","10","134.031","144.038","144.456","10.425","0.418","3","27",""
"10","R_3O7xmq5KkbW5Bcr","standard","1","10","HP","10","145.461","155.468","156.024","10.563","0.556","3","30",""
"11","R_3O7xmq5KkbW5Bcr","standard","1","11","HP","2","157.032","159.037","159.932","2.9","0.895","3","33",""
"12","R_3O7xmq5KkbW5Bcr","standard","1","12","HP","20","160.944","180.947","181.36","20.416","0.413","3","36",""
"13","R_3O7xmq5KkbW5Bcr","standard","1","13","HP","16","182.363","198.377","198.856","16.493","0.479","3","39",""
"14","R_3O7xmq5KkbW5Bcr","standard","1","14","HP","16","199.873","215.882","216.5","16.627","0.618","3","42",""
"15","R_3O7xmq5KkbW5Bcr","standard","1","15","HP","12","217.502","229.502","229.99","12.488","0.488","3","45",""
"16","R_3O7xmq5KkbW5Bcr","standard","1","16","HP","6","230.996","236.998","237.577","6.581","0.579","3","48",""
"17","R_3O7xmq5KkbW5Bcr","standard","1","17","HP","2","238.585","240.593","241.156","2.571","0.563","3","51",""
"18","R_3O7xmq5KkbW5Bcr","standard","1","18","HP","18","242.161","260.174","260.801","18.64","0.627","3","54",""
"19","R_3O7xmq5KkbW5Bcr","standard","1","19","HP","12","261.804","273.806","274.466","12.662","0.66","3","57",""
"20","R_3O7xmq5KkbW5Bcr","standard","1","20","HP","2","275.473","277.485","278.053","2.58","0.568","3","60",""
"21","R_3O7xmq5KkbW5Bcr","standard","1","21","HP","16","279.06","295.065","295.579","16.519","0.514","3","63",""
"22","R_3O7xmq5KkbW5Bcr","standard","1","22","HP","14","296.581","310.595","311.05","14.469","0.455","3","66",""
"23","R_3O7xmq5KkbW5Bcr","standard","1","23","HP","10","312.056","322.067","322.473","10.417","0.406","3","69",""
"24","R_3O7xmq5KkbW5Bcr","standard","1","24","HP","8","323.482","331.49","331.831","8.349","0.341","3","72",""
"25","R_3O7xmq5KkbW5Bcr","standard","1","25","HP","10","332.838","342.849","343.374","10.536","0.525","3","75",""
"26","R_3O7xmq5KkbW5Bcr","standard","1","26","HP","10","344.382","354.388","355.167","10.785","0.779","3","78",""
"27","R_3O7xmq5KkbW5Bcr","standard","1","27","HP","6","356.174","362.177","362.839","6.665","0.662","3","81",""
"28","R_3O7xmq5KkbW5Bcr","standard","1","28","HP","6","363.844","369.85","370.326","6.482","0.476","3","84",""
"29","R_3O7xmq5KkbW5Bcr","standard","1","29","HP","6","371.331","377.338","377.942","6.611","0.604","3","87",""
"30","R_3O7xmq5KkbW5Bcr","standard","1","30","HP","8","378.948","386.953","387.614","8.666","0.661","3","90",""
"31","R_3O7xmq5KkbW5Bcr","standard","1","31","HP","14","388.62","402.627","403.142","14.522","0.515","3","93",""
"32","R_3O7xmq5KkbW5Bcr","standard","1","32","HP","8","404.147","412.154","NA","9.013","NA","0","93",""
"33","R_3O7xmq5KkbW5Bcr","standard","1","33","HP","12","414.168","426.176","426.52","12.352","0.344","3","96",""
"34","R_3O7xmq5KkbW5Bcr","standard","1","34","HP","10","427.529","437.536","437.902","10.373","0.366","3","99",""
"35","R_3O7xmq5KkbW5Bcr","standard","1","35","HP","2","438.912","440.923","441.348","2.436","0.425","3","102",""
"36","R_3O7xmq5KkbW5Bcr","standard","1","36","HP","6","442.353","448.361","NA","7.021","NA","0","102",""
"37","R_3O7xmq5KkbW5Bcr","standard","1","37","HP","4","450.388","454.39","454.816","4.428","0.426","3","105",""
"38","R_3O7xmq5KkbW5Bcr","standard","1","38","HP","10","455.821","465.835","466.23","10.409","0.395","3","105","5752"
"39","R_3O7xmq5KkbW5Bcr","standard","1","39","HP","12","467.237","479.251","480.083","12.846","0.832","3","108",""
"40","R_3O7xmq5KkbW5Bcr","standard","1","40","HP","2","481.089","483.093","483.883","2.794","0.79","3","111",""
"41","R_3O7xmq5KkbW5Bcr","standard","1","41","HP","18","484.889","502.89","503.366","18.477","0.476","3","114",""
"42","R_3O7xmq5KkbW5Bcr","standard","1","42","HP","16","504.376","520.386","520.866","16.49","0.48","3","117",""
"43","R_3O7xmq5KkbW5Bcr","standard","1","43","HP","10","521.875","531.888","532.551","10.676","0.663","3","120",""
"44","R_3O7xmq5KkbW5Bcr","standard","1","44","HP","12","533.558","545.568","545.656","12.098","0.088","3","123",""
"45","R_3O7xmq5KkbW5Bcr","standard","1","45","HP","4","546.664","550.676","551.163","4.499","0.487","3","126",""
"46","R_3O7xmq5KkbW5Bcr","standard","1","46","HP","20","552.176","572.177","NA","21.003","NA","0","126",""
"47","R_3O7xmq5KkbW5Bcr","standard","1","47","HP","20","574.18","594.183","594.729","20.549","0.546","3","129",""
"48","R_3O7xmq5KkbW5Bcr","standard","1","48","HP","4","595.738","599.746","NA","5.021","NA","0","129",""
"49","R_3O7xmq5KkbW5Bcr","standard","1","49","HP","12","601.773","613.781","614.097","12.324","0.316","3","132",""
"50","R_3O7xmq5KkbW5Bcr","standard","1","50","HP","4","615.104","619.111","619.492","4.388","0.381","3","135",""
"51","R_3O7xmq5KkbW5Bcr","standard","1","51","HP","20","620.493","640.503","640.9","20.407","0.397","3","135","323"
"52","R_3O7xmq5KkbW5Bcr","standard","1","52","HP","12","641.902","653.908","654.358","12.456","0.45","3","138",""
"53","R_3O7xmq5KkbW5Bcr","standard","1","53","HP","10","655.364","665.373","665.745","10.381","0.372","3","141",""
"54","R_3O7xmq5KkbW5Bcr","standard","1","54","HP","2","666.752","668.762","669.662","2.91","0.9","3","144",""
"55","R_3O7xmq5KkbW5Bcr","standard","1","55","HP","14","670.667","684.679","685.051","14.384","0.372","3","147",""
"56","R_3O7xmq5KkbW5Bcr","standard","1","56","HP","20","686.065","706.075","706.464","20.399","0.389","3","150",""
"57","R_3O7xmq5KkbW5Bcr","standard","1","57","HP","10","707.478","717.48","718.005","10.527","0.525","3","153",""
"58","R_3O7xmq5KkbW5Bcr","standard","1","58","HP","20","719.013","739.017","739.487","20.474","0.47","3","156",""
"59","R_3O7xmq5KkbW5Bcr","standard","1","59","HP","18","740.497","758.503","758.925","18.428","0.422","3","159",""
"60","R_3O7xmq5KkbW5Bcr","standard","1","60","HP","20","759.934","779.947","NA","21.025","NA","0","156","7319"
"61","R_3O7xmq5KkbW5Bcr","standard","1","61","HP","8","781.973","789.978","790.404","8.431","0.426","3","159",""
"62","R_3O7xmq5KkbW5Bcr","standard","1","62","HP","10","791.413","801.423","801.811","10.398","0.388","3","162",""
"63","R_3O7xmq5KkbW5Bcr","standard","1","63","HP","14","802.821","816.83","817.192","14.371","0.362","3","165",""
"64","R_3O7xmq5KkbW5Bcr","standard","1","64","HP","6","818.199","824.205","824.673","6.474","0.468","3","168",""
"65","R_3O7xmq5KkbW5Bcr","standard","1","65","HP","14","825.675","839.676","840.239","14.564","0.563","3","171",""
"66","R_3O7xmq5KkbW5Bcr","standard","1","66","HP","4","841.245","845.251","845.756","4.511","0.505","3","174",""
"67","R_3O7xmq5KkbW5Bcr","standard","1","67","HP","12","846.766","858.766","859.27","12.504","0.504","3","177",""
"68","R_3O7xmq5KkbW5Bcr","standard","1","68","HP","6","860.273","866.274","866.797","6.524","0.523","3","180",""
"69","R_3O7xmq5KkbW5Bcr","standard","1","69","HP","12","867.803","879.812","880.321","12.518","0.509","3","183",""
"70","R_3O7xmq5KkbW5Bcr","standard","1","70","HP","12","881.331","893.341","893.87","12.539","0.529","3","186",""
"71","R_3O7xmq5KkbW5Bcr","standard","2","1","LP","8.51632916846187","0","8.521","8.897","8.897","0.376","3","189",NA
"72","R_3O7xmq5KkbW5Bcr","standard","2","2","LP","2.15079707022835","9.898","12.051","12.621","2.723","0.57","3","192",NA
"73","R_3O7xmq5KkbW5Bcr","standard","2","3","LP","19.8235243429556","13.63","NaN","25.435","11.805","NaN","0","192",NA
"74","R_3O7xmq5KkbW5Bcr","standard","2","4","LP","0.661783713916415","26.449","27.114","27.819","1.37","0.705","3","195",NA
"75","R_3O7xmq5KkbW5Bcr","standard","2","5","LP","13.0392072382594","28.822","41.87","42.404","13.582","0.534","3","198",NA
"76","R_3O7xmq5KkbW5Bcr","standard","2","6","LP","2.15079707022835","43.409","NaN","44.397","0.988","NaN","0","198",NA
"77","R_3O7xmq5KkbW5Bcr","standard","2","7","LP","13.0392072382594","45.405","58.451","58.897","13.492","0.446","3","201",NA
"78","R_3O7xmq5KkbW5Bcr","standard","2","8","LP","0.661783713916415","59.912","60.575","61.128","1.216","0.553","3","204",NA
"79","R_3O7xmq5KkbW5Bcr","standard","2","9","LP","2.15079707022835","62.141","64.303","64.987","2.846","0.684","3","207",NA
"80","R_3O7xmq5KkbW5Bcr","standard","2","10","LP","5.5010771219302","65.992","71.502","72.344","6.352","0.842","3","210",NA
"81","R_3O7xmq5KkbW5Bcr","standard","2","11","LP","19.8235243429556","73.356","93.19","93.738","20.382","0.548","3","213",NA
"82","R_3O7xmq5KkbW5Bcr","standard","2","12","LP","13.0392072382594","94.745","107.795","108.261","13.516","0.466","3","216",NA
"83","R_3O7xmq5KkbW5Bcr","standard","2","13","LP","5.5010771219302","109.269","114.781","115.29","6.021","0.509","3","219",NA
"84","R_3O7xmq5KkbW5Bcr","standard","2","14","LP","3.49090909090909","116.295","119.791","120.398","4.103","0.607","3","222",NA
"85","R_3O7xmq5KkbW5Bcr","standard","2","15","LP","2.15079707022835","121.402","123.564","124.051","2.649","0.487","3","225",NA
"86","R_3O7xmq5KkbW5Bcr","standard","2","16","LP","0.661783713916415","125.054","125.717","126.274","1.22","0.557","3","228",NA
"87","R_3O7xmq5KkbW5Bcr","standard","2","17","LP","3.49090909090909","127.28","130.78","131.21","3.93","0.43","3","231",NA
"88","R_3O7xmq5KkbW5Bcr","standard","2","18","LP","8.51632916846187","132.213","140.737","141.18","8.967","0.443","3","234",NA
"89","R_3O7xmq5KkbW5Bcr","standard","2","19","LP","5.5010771219302","142.196","147.706","148.234","6.038","0.528","3","237",NA
"90","R_3O7xmq5KkbW5Bcr","standard","2","20","LP","0.264713485566566","149.237","149.508","150","0.763","0.492","3","240",NA
"91","R_3O7xmq5KkbW5Bcr","standard","2","21","LP","5.5010771219302","151.004","NaN","153.279","2.275","NaN","0","240",NA
"92","R_3O7xmq5KkbW5Bcr","standard","2","22","LP","13.0392072382594","154.284","167.324","167.698","13.414","0.374","3","243",NA
"93","R_3O7xmq5KkbW5Bcr","standard","2","23","LP","19.8235243429556","168.7","NaN","185.166","16.466","NaN","0","243",NA
"94","R_3O7xmq5KkbW5Bcr","standard","2","24","LP","0.264713485566566","186.172","186.446","186.91","0.738","0.464","3","246",NA
"95","R_3O7xmq5KkbW5Bcr","standard","2","25","LP","5.5010771219302","187.914","193.421","193.818","5.904","0.397","3","249",NA
"96","R_3O7xmq5KkbW5Bcr","standard","2","26","LP","13.0392072382594","194.826","207.878","208.403","13.577","0.525","3","252",NA
"97","R_3O7xmq5KkbW5Bcr","standard","2","27","LP","30","209.404","NaN","231.792","22.388","NaN","0","252",NA
"98","R_3O7xmq5KkbW5Bcr","standard","2","28","LP","2.15079707022835","232.8","234.959","235.406","2.606","0.447","3","255",NA
"99","R_3O7xmq5KkbW5Bcr","standard","2","29","LP","8.51632916846187","236.408","244.932","245.373","8.965","0.441","3","258",NA
"100","R_3O7xmq5KkbW5Bcr","standard","2","30","LP","2.15079707022835","246.375","248.533","249.1","2.725","0.567","3","261",NA
"101","R_3O7xmq5KkbW5Bcr","standard","2","31","LP","0.661783713916415","250.103","250.774","251.604","1.501","0.83","3","264",NA
"102","R_3O7xmq5KkbW5Bcr","standard","2","32","LP","2.15079707022835","252.607","254.766","255.272","2.665","0.506","3","267",NA
"103","R_3O7xmq5KkbW5Bcr","standard","2","33","LP","0.264713485566566","256.286","256.566","257.067","0.781","0.501","3","270",NA
"104","R_3O7xmq5KkbW5Bcr","standard","2","34","LP","3.49090909090909","258.076","261.579","261.974","3.898","0.395","3","273",NA
"105","R_3O7xmq5KkbW5Bcr","standard","2","35","LP","2.15079707022835","262.99","265.149","265.62","2.63","0.471","3","276",NA
"106","R_3O7xmq5KkbW5Bcr","standard","2","36","LP","19.8235243429556","266.625","286.461","287.214","20.589","0.753","3","279",NA
"107","R_3O7xmq5KkbW5Bcr","standard","2","37","LP","0.264713485566566","288.225","288.495","289.095","0.87","0.6","3","282",NA
"108","R_3O7xmq5KkbW5Bcr","standard","2","38","LP","0.264713485566566","290.102","290.38","290.755","0.653","0.375","3","285",NA
"109","R_3O7xmq5KkbW5Bcr","standard","2","39","LP","5.5010771219302","291.761","297.269","297.726","5.965","0.457","3","288",NA
"110","R_3O7xmq5KkbW5Bcr","standard","2","40","LP","5.5010771219302","298.737","304.252","304.638","5.901","0.386","3","291",NA
"111","R_3O7xmq5KkbW5Bcr","standard","2","41","LP","19.8235243429556","305.651","NaN","323.761","18.11","NaN","0","291",NA
"112","R_3O7xmq5KkbW5Bcr","standard","2","42","LP","0.661783713916415","324.766","325.435","325.962","1.196","0.527","3","294",NA
"113","R_3O7xmq5KkbW5Bcr","standard","2","43","LP","5.5010771219302","326.966","332.479","333.086","6.12","0.607","3","297",NA
"114","R_3O7xmq5KkbW5Bcr","standard","2","44","LP","30","334.095","NaN","343.143","9.048","NaN","0","297",NA
"115","R_3O7xmq5KkbW5Bcr","standard","2","45","LP","1.25738905644119","344.15","345.414","345.872","1.722","0.458","3","300",NA
"116","R_3O7xmq5KkbW5Bcr","standard","2","46","LP","2.15079707022835","346.875","349.039","349.52","2.645","0.481","3","303",NA
"117","R_3O7xmq5KkbW5Bcr","standard","2","47","LP","5.5010771219302","350.526","356.039","356.647","6.121","0.608","3","306",NA
"118","R_3O7xmq5KkbW5Bcr","standard","2","48","LP","3.49090909090909","357.653","361.153","361.696","4.043","0.543","3","309",NA
"119","R_3O7xmq5KkbW5Bcr","standard","2","49","LP","3.49090909090909","362.697","366.189","366.666","3.969","0.477","3","312",NA
"120","R_3O7xmq5KkbW5Bcr","standard","2","50","LP","19.8235243429556","367.679","NaN","378.701","11.022","NaN","0","312",NA
"121","R_3O7xmq5KkbW5Bcr","standard","2","51","LP","30","379.705","NaN","390.875","11.17","NaN","0","312",NA
"122","R_3O7xmq5KkbW5Bcr","standard","2","52","LP","1.25738905644119","391.882","393.146",NA,"2.278",NA,"0","312",NA
"123","R_3O7xmq5KkbW5Bcr","standard","2","53","LP","13.0392072382594","395.175","408.22","408.796","13.621","0.576","3","315",NA
"124","R_3O7xmq5KkbW5Bcr","standard","2","54","LP","13.0392072382594","409.801","422.854","423.239","13.438","0.385","3","318",NA
"125","R_3O7xmq5KkbW5Bcr","standard","2","55","LP","1.25738905644119","424.254","425.519","426.072","1.818","0.553","3","321",NA
"126","R_3O7xmq5KkbW5Bcr","standard","2","56","LP","0.661783713916415","427.08","427.744",NA,"1.676",NA,"0","321",NA
"127","R_3O7xmq5KkbW5Bcr","standard","2","57","LP","8.51632916846187","429.765","438.29","438.754","8.989","0.464","3","324",NA
"128","R_3O7xmq5KkbW5Bcr","standard","2","58","LP","5.5010771219302","439.764","445.277","445.673","5.909","0.396","3","327",NA
"129","R_3O7xmq5KkbW5Bcr","standard","2","59","LP","30","446.684","NaN","466.169","19.485","NaN","0","327",NA
"130","R_3O7xmq5KkbW5Bcr","standard","2","60","LP","19.8235243429556","467.174","NaN","483.495","16.321","NaN","0","327",NA
"131","R_3O7xmq5KkbW5Bcr","standard","2","61","LP","3.49090909090909","484.498","487.989","488.493","3.995","0.504","3","330",NA
"132","R_3O7xmq5KkbW5Bcr","standard","2","62","LP","2.15079707022835","489.501","491.666","492.342","2.841","0.676","3","333",NA
"133","R_3O7xmq5KkbW5Bcr","standard","2","63","LP","0.264713485566566","493.347","493.623","494.014","0.667","0.391","3","336",NA
"134","R_3O7xmq5KkbW5Bcr","standard","2","64","LP","1.25738905644119","495.022","496.289","496.7","1.678","0.411","3","339",NA
"135","R_3O7xmq5KkbW5Bcr","standard","2","65","LP","8.51632916846187","497.707","506.227","506.46","8.753","0.233","3","342",NA
"136","R_3O7xmq5KkbW5Bcr","standard","2","66","LP","19.8235243429556","507.469","NaN","515.734","8.265","NaN","0","342",NA
"137","R_3O7xmq5KkbW5Bcr","standard","2","67","LP","13.0392072382594","516.743","NaN","526.087","9.344","NaN","0","342",NA
"138","R_3O7xmq5KkbW5Bcr","standard","2","68","LP","13.0392072382594","527.09","NaN","538.395","11.305","NaN","0","342",NA
"139","R_3O7xmq5KkbW5Bcr","standard","2","69","LP","2.15079707022835","539.403","541.561","542.145","2.742","0.584","3","345",NA
"140","R_3O7xmq5KkbW5Bcr","standard","2","70","LP","2.15079707022835","543.158","545.318","545.896","2.738","0.578","3","348",NA
"141","R_3O7xmq5KkbW5Bcr","standard","2","71","LP","0.661783713916415","546.904","547.57","548.246","1.342","0.676","3","351",NA
"142","R_3O7xmq5KkbW5Bcr","standard","2","72","LP","19.8235243429556","549.25","NaN","558.454","9.204","NaN","0","351",NA
"143","R_3O7xmq5KkbW5Bcr","standard","2","73","LP","2.15079707022835","559.469","561.629","562.324","2.855","0.695","3","354",NA
"144","R_3O7xmq5KkbW5Bcr","standard","2","74","LP","3.49090909090909","563.327","566.825",NA,"4.51",NA,"0","354",NA
"145","R_3O7xmq5KkbW5Bcr","standard","2","75","LP","13.0392072382594","568.84","NaN","577.727","8.887","NaN","0","354",NA
"146","R_3O7xmq5KkbW5Bcr","standard","2","76","LP","3.49090909090909","578.739","582.238","582.594","3.855","0.356","3","357",NA
"147","R_3O7xmq5KkbW5Bcr","standard","2","77","LP","1.25738905644119","583.6","584.868","585.575","1.975","0.707","3","360",NA
"148","R_3O7xmq5KkbW5Bcr","standard","2","78","LP","8.51632916846187","586.577","NaN","590.283","3.706","NaN","0","360",NA
"149","R_3O7xmq5KkbW5Bcr","standard","2","79","LP","1.25738905644119","591.284","592.546","592.932","1.648","0.386","3","363",NA
