"","subject_id","condition","n_block","n_trialIdx","f_timing_condition","n_scheduled_delay","n_trial_start_time","n_rewarded_time_fin","n_sell_time_fin","n_time_waited_fin","RT_fin","n_trial_earnings_fin","n_total_earnings_fin","keypress_times"
"1","R_3oBZMnXqYIiyt7a","standard","1","1","HP","10","0.001","10.014","10.326","10.325","0.312","3","3",""
"2","R_3oBZMnXqYIiyt7a","standard","1","2","HP","18","11.328","29.337","29.684","18.356","0.347","3","6",""
"3","R_3oBZMnXqYIiyt7a","standard","1","3","HP","6","30.689","36.696","37.096","6.407","0.4","3","9",""
"4","R_3oBZMnXqYIiyt7a","standard","1","4","HP","12","38.104","50.109","50.549","12.445","0.44","3","12",""
"5","R_3oBZMnXqYIiyt7a","standard","1","5","HP","8","51.566","59.588","60.064","8.498","0.476","3","15",""
"6","R_3oBZMnXqYIiyt7a","standard","1","6","HP","6","61.076","67.08","67.601","6.525","0.521","3","18",""
"7","R_3oBZMnXqYIiyt7a","standard","1","7","HP","4","68.608","72.613","73.068","4.46","0.455","3","21",""
"8","R_3oBZMnXqYIiyt7a","standard","1","8","HP","12","74.076","86.079","86.454","12.378","0.375","3","24",""
"9","R_3oBZMnXqYIiyt7a","standard","1","9","HP","14","87.455","101.47","101.807","14.352","0.337","3","27",""
"10","R_3oBZMnXqYIiyt7a","standard","1","10","HP","8","102.809","110.82","111.438","8.629","0.618","3","30",""
"11","R_3oBZMnXqYIiyt7a","standard","1","11","HP","4","112.447","116.455","116.874","4.427","0.419","3","33",""
"12","R_3oBZMnXqYIiyt7a","standard","1","12","HP","16","117.879","133.889","134.338","16.459","0.449","3","36",""
"13","R_3oBZMnXqYIiyt7a","standard","1","13","HP","18","135.344","153.354","153.761","18.417","0.407","3","39",""
"14","R_3oBZMnXqYIiyt7a","standard","1","14","HP","16","154.782","170.784","171.132","16.35","0.348","3","42",""
"15","R_3oBZMnXqYIiyt7a","standard","1","15","HP","18","172.149","190.153","190.541","18.392","0.388","3","45",""
"16","R_3oBZMnXqYIiyt7a","standard","1","16","HP","6","191.553","197.562","198.032","6.479","0.47","3","48",""
"17","R_3oBZMnXqYIiyt7a","standard","1","17","HP","18","199.04","217.048","217.382","18.342","0.334","3","51",""
"18","R_3oBZMnXqYIiyt7a","standard","1","18","HP","14","218.384","232.397","232.75","14.366","0.353","3","54",""
"19","R_3oBZMnXqYIiyt7a","standard","1","19","HP","8","233.758","241.761","242.297","8.539","0.536","3","57",""
"20","R_3oBZMnXqYIiyt7a","standard","1","20","HP","12","243.306","255.316","255.764","12.458","0.448","3","60",""
"21","R_3oBZMnXqYIiyt7a","standard","1","21","HP","4","256.768","260.778","261.383","4.615","0.605","3","63",""
"22","R_3oBZMnXqYIiyt7a","standard","1","22","HP","18","262.384","280.405","280.769","18.385","0.364","3","66",""
"23","R_3oBZMnXqYIiyt7a","standard","1","23","HP","20","281.791","301.802","302.225","20.434","0.423","3","69",""
"24","R_3oBZMnXqYIiyt7a","standard","1","24","HP","14","303.241","317.258","317.674","14.433","0.416","3","72",""
"25","R_3oBZMnXqYIiyt7a","standard","1","25","HP","16","318.68","334.688","335.138","16.458","0.45","3","75",""
"26","R_3oBZMnXqYIiyt7a","standard","1","26","HP","2","336.152","338.161","338.632","2.48","0.471","3","78",""
"27","R_3oBZMnXqYIiyt7a","standard","1","27","HP","12","339.64","351.648","351.966","12.326","0.318","3","81",""
"28","R_3oBZMnXqYIiyt7a","standard","1","28","HP","16","352.979","368.984","369.467","16.488","0.483","3","84",""
"29","R_3oBZMnXqYIiyt7a","standard","1","29","HP","6","370.474","376.494","377.276","6.802","0.782","3","87",""
"30","R_3oBZMnXqYIiyt7a","standard","1","30","HP","2","378.28","380.288","380.865","2.585","0.577","3","90",""
"31","R_3oBZMnXqYIiyt7a","standard","1","31","HP","6","381.874","387.881","388.375","6.501","0.494","3","93",""
"32","R_3oBZMnXqYIiyt7a","standard","1","32","HP","18","389.389","407.393","407.838","18.449","0.445","3","96",""
"33","R_3oBZMnXqYIiyt7a","standard","1","33","HP","18","408.84","426.849","427.354","18.514","0.505","3","99",""
"34","R_3oBZMnXqYIiyt7a","standard","1","34","HP","6","428.374","434.379","NA","7.02","NA","0","99",""
"35","R_3oBZMnXqYIiyt7a","standard","1","35","HP","8","436.403","444.421","444.986","8.583","0.565","3","102",""
"36","R_3oBZMnXqYIiyt7a","standard","1","36","HP","10","446.006","456.013","456.387","10.381","0.374","3","105",""
"37","R_3oBZMnXqYIiyt7a","standard","1","37","HP","12","457.398","469.4","469.977","12.579","0.577","3","108",""
"38","R_3oBZMnXqYIiyt7a","standard","1","38","HP","14","470.99","484.995","485.389","14.399","0.394","3","111",""
"39","R_3oBZMnXqYIiyt7a","standard","1","39","HP","10","486.393","496.409","496.868","10.475","0.459","3","114",""
"40","R_3oBZMnXqYIiyt7a","standard","1","40","HP","8","497.872","505.883","506.299","8.427","0.416","3","117",""
"41","R_3oBZMnXqYIiyt7a","standard","1","41","HP","10","507.313","517.318","517.762","10.449","0.444","3","120",""
"42","R_3oBZMnXqYIiyt7a","standard","1","42","HP","8","518.768","526.787","527.231","8.463","0.444","3","123",""
"43","R_3oBZMnXqYIiyt7a","standard","1","43","HP","12","528.232","540.24","540.611","12.379","0.371","3","126",""
"44","R_3oBZMnXqYIiyt7a","standard","1","44","HP","10","541.614","551.616","552.047","10.433","0.431","3","129",""
"45","R_3oBZMnXqYIiyt7a","standard","1","45","HP","4","553.057","557.077","557.551","4.494","0.474","3","132",""
"46","R_3oBZMnXqYIiyt7a","standard","1","46","HP","20","558.557","578.573","578.912","20.355","0.339","3","135",""
"47","R_3oBZMnXqYIiyt7a","standard","1","47","HP","16","579.915","595.916","596.389","16.474","0.473","3","138",""
"48","R_3oBZMnXqYIiyt7a","standard","1","48","HP","18","597.392","615.403","615.77","18.378","0.367","3","141",""
"49","R_3oBZMnXqYIiyt7a","standard","1","49","HP","18","616.79","634.792","635.143","18.353","0.351","3","144",""
"50","R_3oBZMnXqYIiyt7a","standard","1","50","HP","12","636.144","648.159","649.07","12.926","0.911","3","147",""
"51","R_3oBZMnXqYIiyt7a","standard","1","51","HP","4","650.079","654.103","655.023","4.944","0.92","3","150",""
"52","R_3oBZMnXqYIiyt7a","standard","1","52","HP","14","656.024","670.028","670.504","14.48","0.476","3","153",""
"53","R_3oBZMnXqYIiyt7a","standard","1","53","HP","4","671.504","675.509","676.047","4.543","0.538","3","156",""
"54","R_3oBZMnXqYIiyt7a","standard","1","54","HP","16","677.056","693.063","693.49","16.434","0.427","3","159",""
"55","R_3oBZMnXqYIiyt7a","standard","1","55","HP","20","694.496","714.503","714.843","20.347","0.34","3","162",""
"56","R_3oBZMnXqYIiyt7a","standard","1","56","HP","10","715.848","725.855","726.239","10.391","0.384","3","165",""
"57","R_3oBZMnXqYIiyt7a","standard","1","57","HP","18","727.248","745.256","745.612","18.364","0.356","3","168",""
"58","R_3oBZMnXqYIiyt7a","standard","1","58","HP","16","746.614","762.624","763.074","16.46","0.45","3","171",""
"59","R_3oBZMnXqYIiyt7a","standard","1","59","HP","16","764.08","780.087","780.558","16.478","0.471","3","174",""
"60","R_3oBZMnXqYIiyt7a","standard","1","60","HP","20","781.567","801.577","802.014","20.447","0.437","3","177",""
"61","R_3oBZMnXqYIiyt7a","standard","1","61","HP","14","803.016","817.024","817.58","14.564","0.556","3","180",""
"62","R_3oBZMnXqYIiyt7a","standard","1","62","HP","2","818.599","820.619","821.226","2.627","0.607","3","183",""
"63","R_3oBZMnXqYIiyt7a","standard","1","63","HP","4","822.228","826.228","826.725","4.497","0.497","3","186",""
"64","R_3oBZMnXqYIiyt7a","standard","1","64","HP","8","827.729","835.736","836.204","8.475","0.468","3","189",""
"65","R_3oBZMnXqYIiyt7a","standard","1","65","HP","10","837.21","847.22","847.676","10.466","0.456","3","192",""
"66","R_3oBZMnXqYIiyt7a","standard","1","66","HP","2","848.686","850.699","851.175","2.489","0.476","3","195",""
"67","R_3oBZMnXqYIiyt7a","standard","1","67","HP","8","852.182","860.19","860.606","8.424","0.416","3","198",""
"68","R_3oBZMnXqYIiyt7a","standard","1","68","HP","8","861.608","869.612","870.02","8.412","0.408","3","201",""
"69","R_3oBZMnXqYIiyt7a","standard","1","69","HP","20","871.033","891.04","891.431","20.398","0.391","3","204",""
"70","R_3oBZMnXqYIiyt7a","standard","2","1","LP","30","0.001","NaN","4.223","4.222","NaN","0","204",NA
"71","R_3oBZMnXqYIiyt7a","standard","2","2","LP","3.49090909090909","5.231","8.723","9.127","3.896","0.404","3","207",NA
"72","R_3oBZMnXqYIiyt7a","standard","2","3","LP","13.0392072382594","10.133","NaN","14.349","4.216","NaN","0","207",NA
"73","R_3oBZMnXqYIiyt7a","standard","2","4","LP","0.661783713916415","15.351","16.014",NA,"1.666",NA,"0","207",NA
"74","R_3oBZMnXqYIiyt7a","standard","2","5","LP","8.51632916846187","18.018","26.535","26.825","8.807","0.29","3","210",NA
"75","R_3oBZMnXqYIiyt7a","standard","2","6","LP","0.264713485566566","27.831","28.112","28.519","0.688","0.407","3","213",NA
"76","R_3oBZMnXqYIiyt7a","standard","2","7","LP","2.15079707022835","29.532","31.687","32.06","2.528","0.373","3","216",NA
"77","R_3oBZMnXqYIiyt7a","standard","2","8","LP","3.49090909090909","33.063","36.559","36.836","3.773","0.277","3","219",NA
"78","R_3oBZMnXqYIiyt7a","standard","2","9","LP","13.0392072382594","37.845","50.91","51.242","13.397","0.332","3","222",NA
"79","R_3oBZMnXqYIiyt7a","standard","2","10","LP","19.8235243429556","52.248","72.092","72.452","20.204","0.36","3","225",NA
"80","R_3oBZMnXqYIiyt7a","standard","2","11","LP","1.25738905644119","73.455","74.719","74.986","1.531","0.267","3","228",NA
"81","R_3oBZMnXqYIiyt7a","standard","2","12","LP","1.25738905644119","75.998","77.263","77.706","1.708","0.443","3","231",NA
"82","R_3oBZMnXqYIiyt7a","standard","2","13","LP","0.661783713916415","78.709","79.377","79.77","1.061","0.393","3","234",NA
"83","R_3oBZMnXqYIiyt7a","standard","2","14","LP","13.0392072382594","80.789","93.833","94.229","13.44","0.396","3","237",NA
"84","R_3oBZMnXqYIiyt7a","standard","2","15","LP","1.25738905644119","95.231","96.499","97.066","1.835","0.567","3","240",NA
"85","R_3oBZMnXqYIiyt7a","standard","2","16","LP","8.51632916846187","98.071","106.591","106.936","8.865","0.345","3","243",NA
"86","R_3oBZMnXqYIiyt7a","standard","2","17","LP","0.661783713916415","107.943","108.607","109.062","1.119","0.455","3","246",NA
"87","R_3oBZMnXqYIiyt7a","standard","2","18","LP","19.8235243429556","110.069","129.903","130.202","20.133","0.299","3","249",NA
"88","R_3oBZMnXqYIiyt7a","standard","2","19","LP","13.0392072382594","131.22","144.274","144.609","13.389","0.335","3","252",NA
"89","R_3oBZMnXqYIiyt7a","standard","2","20","LP","2.15079707022835","145.612","147.778","148.29","2.678","0.512","3","255",NA
"90","R_3oBZMnXqYIiyt7a","standard","2","21","LP","5.5010771219302","149.303","154.808","155.233","5.93","0.425","3","258",NA
"91","R_3oBZMnXqYIiyt7a","standard","2","22","LP","2.15079707022835","156.24","158.392","158.832","2.592","0.44","3","261",NA
"92","R_3oBZMnXqYIiyt7a","standard","2","23","LP","1.25738905644119","159.836","161.095","161.584","1.748","0.489","3","264",NA
"93","R_3oBZMnXqYIiyt7a","standard","2","24","LP","2.15079707022835","162.591","164.744","165.17","2.579","0.426","3","267",NA
"94","R_3oBZMnXqYIiyt7a","standard","2","25","LP","2.15079707022835","166.174","168.332","168.927","2.753","0.595","3","270",NA
"95","R_3oBZMnXqYIiyt7a","standard","2","26","LP","30","169.941","199.952","200.293","30.352","0.341","3","273",NA
"96","R_3oBZMnXqYIiyt7a","standard","2","27","LP","0.264713485566566","201.307","201.587",NA,"1.283",NA,"0","273",NA
"97","R_3oBZMnXqYIiyt7a","standard","2","28","LP","3.49090909090909","203.599","207.095","207.48","3.881","0.385","3","276",NA
"98","R_3oBZMnXqYIiyt7a","standard","2","29","LP","0.264713485566566","208.5","208.788","209.18","0.68","0.392","3","279",NA
"99","R_3oBZMnXqYIiyt7a","standard","2","30","LP","8.51632916846187","210.193","218.715","219.198","9.005","0.483","3","282",NA
"100","R_3oBZMnXqYIiyt7a","standard","2","31","LP","2.15079707022835","220.22","222.385","222.769","2.549","0.384","3","285",NA
"101","R_3oBZMnXqYIiyt7a","standard","2","32","LP","2.15079707022835","223.785","225.948","226.346","2.561","0.398","3","288",NA
"102","R_3oBZMnXqYIiyt7a","standard","2","33","LP","2.15079707022835","227.365","229.517","229.925","2.56","0.408","3","291",NA
"103","R_3oBZMnXqYIiyt7a","standard","2","34","LP","1.25738905644119","230.936","232.199","232.646","1.71","0.447","3","294",NA
"104","R_3oBZMnXqYIiyt7a","standard","2","35","LP","1.25738905644119","233.649","234.908","235.506","1.857","0.598","3","297",NA
"105","R_3oBZMnXqYIiyt7a","standard","2","36","LP","8.51632916846187","236.509","245.031","245.477","8.968","0.446","3","300",NA
"106","R_3oBZMnXqYIiyt7a","standard","2","37","LP","1.25738905644119","246.494","247.769","248.561","2.067","0.792","3","303",NA
"107","R_3oBZMnXqYIiyt7a","standard","2","38","LP","0.661783713916415","249.567","250.233",NA,"1.678",NA,"0","303",NA
"108","R_3oBZMnXqYIiyt7a","standard","2","39","LP","2.15079707022835","252.253","254.415","254.814","2.561","0.399","3","306",NA
"109","R_3oBZMnXqYIiyt7a","standard","2","40","LP","8.51632916846187","255.819","264.336","264.791","8.972","0.455","3","309",NA
"110","R_3oBZMnXqYIiyt7a","standard","2","41","LP","1.25738905644119","265.812","267.071","267.464","1.652","0.393","3","312",NA
"111","R_3oBZMnXqYIiyt7a","standard","2","42","LP","5.5010771219302","268.476","273.988","274.375","5.899","0.387","3","315",NA
"112","R_3oBZMnXqYIiyt7a","standard","2","43","LP","0.661783713916415","275.383","276.047","276.431","1.048","0.384","3","318",NA
"113","R_3oBZMnXqYIiyt7a","standard","2","44","LP","5.5010771219302","277.439","282.943","283.434","5.995","0.491","3","321",NA
"114","R_3oBZMnXqYIiyt7a","standard","2","45","LP","1.25738905644119","284.441","285.704","286.1","1.659","0.396","3","324",NA
"115","R_3oBZMnXqYIiyt7a","standard","2","46","LP","19.8235243429556","287.103","306.935","307.388","20.285","0.453","3","327",NA
"116","R_3oBZMnXqYIiyt7a","standard","2","47","LP","30","308.398","338.407","338.752","30.354","0.345","3","330",NA
"117","R_3oBZMnXqYIiyt7a","standard","2","48","LP","8.51632916846187","339.759","348.278","348.694","8.935","0.416","3","333",NA
"118","R_3oBZMnXqYIiyt7a","standard","2","49","LP","8.51632916846187","349.708","358.231",NA,"9.536",NA,"0","333",NA
"119","R_3oBZMnXqYIiyt7a","standard","2","50","LP","13.0392072382594","360.254","373.295","373.647","13.393","0.352","3","336",NA
"120","R_3oBZMnXqYIiyt7a","standard","2","51","LP","13.0392072382594","374.659","387.704","388.026","13.367","0.322","3","339",NA
"121","R_3oBZMnXqYIiyt7a","standard","2","52","LP","19.8235243429556","389.031","408.863","409.26","20.229","0.397","3","342",NA
"122","R_3oBZMnXqYIiyt7a","standard","2","53","LP","13.0392072382594","410.264","423.31","423.832","13.568","0.522","3","345",NA
"123","R_3oBZMnXqYIiyt7a","standard","2","54","LP","5.5010771219302","424.838","430.346","430.81","5.972","0.464","3","348",NA
"124","R_3oBZMnXqYIiyt7a","standard","2","55","LP","8.51632916846187","431.812","440.346",NA,"9.54",NA,"0","348",NA
"125","R_3oBZMnXqYIiyt7a","standard","2","56","LP","1.25738905644119","442.36","443.627","444.082","1.722","0.455","3","351",NA
"126","R_3oBZMnXqYIiyt7a","standard","2","57","LP","19.8235243429556","445.089","464.915","465.332","20.243","0.417","3","354",NA
"127","R_3oBZMnXqYIiyt7a","standard","2","58","LP","19.8235243429556","466.349","486.178","486.578","20.229","0.4","3","357",NA
"128","R_3oBZMnXqYIiyt7a","standard","2","59","LP","0.264713485566566","487.584","487.87","488.311","0.727","0.441","3","360",NA
"129","R_3oBZMnXqYIiyt7a","standard","2","60","LP","0.661783713916415","489.318","489.99","490.435","1.117","0.445","3","363",NA
"130","R_3oBZMnXqYIiyt7a","standard","2","61","LP","19.8235243429556","491.439","511.273","511.634","20.195","0.361","3","366",NA
"131","R_3oBZMnXqYIiyt7a","standard","2","62","LP","2.15079707022835","512.639","NaN","513.201","0.562","NaN","0","366",NA
"132","R_3oBZMnXqYIiyt7a","standard","2","63","LP","8.51632916846187","514.227","522.762","523.505","9.278","0.743","3","369",NA
"133","R_3oBZMnXqYIiyt7a","standard","2","64","LP","3.49090909090909","524.516","528.013",NA,"4.498",NA,"0","369",NA
"134","R_3oBZMnXqYIiyt7a","standard","2","65","LP","1.25738905644119","530.018","531.279","531.705","1.687","0.426","3","372",NA
"135","R_3oBZMnXqYIiyt7a","standard","2","66","LP","19.8235243429556","532.709","552.535","552.941","20.232","0.406","3","375",NA
"136","R_3oBZMnXqYIiyt7a","standard","2","67","LP","0.264713485566566","553.944","554.213","554.656","0.712","0.443","3","378",NA
"137","R_3oBZMnXqYIiyt7a","standard","2","68","LP","13.0392072382594","555.672","568.715","569.211","13.539","0.496","3","381",NA
"138","R_3oBZMnXqYIiyt7a","standard","2","69","LP","3.49090909090909","570.212","573.711","574.142","3.93","0.431","3","384",NA
"139","R_3oBZMnXqYIiyt7a","standard","2","70","LP","0.264713485566566","575.16","575.438","575.826","0.666","0.388","3","387",NA
"140","R_3oBZMnXqYIiyt7a","standard","2","71","LP","19.8235243429556","576.829","596.656","596.996","20.167","0.34","3","390",NA
