"","subject_id","condition","n_block","n_trialIdx","f_timing_condition","n_scheduled_delay","n_trial_start_time","n_rewarded_time_fin","n_sell_time_fin","n_time_waited_fin","RT_fin","n_trial_earnings_fin","n_total_earnings_fin","keypress_times"
"1","R_3p4lCKY6Edm6tWY","standard","1","1","LP","8.51632916846187","0.002","8.526","8.9","8.898","0.374","3","3",""
"2","R_3p4lCKY6Edm6tWY","standard","1","2","LP","2.15079707022835","9.917","12.077","12.483","2.566","0.406","3","6",""
"3","R_3p4lCKY6Edm6tWY","standard","1","3","LP","8.51632916846187","13.484","22.01","22.308","8.824","0.298","3","9",""
"4","R_3p4lCKY6Edm6tWY","standard","1","4","LP","3.49090909090909","23.314","26.81","27.107","3.793","0.297","3","12",""
"5","R_3p4lCKY6Edm6tWY","standard","1","5","LP","19.8235243429556","28.113","47.953","48.251","20.138","0.298","3","15",""
"6","R_3p4lCKY6Edm6tWY","standard","1","6","LP","8.51632916846187","49.266","57.794","58.211","8.945","0.417","3","18",""
"7","R_3p4lCKY6Edm6tWY","standard","1","7","LP","19.8235243429556","59.219","79.053","79.356","20.137","0.303","3","21",""
"8","R_3p4lCKY6Edm6tWY","standard","1","8","LP","13.0392072382594","80.365","93.42","93.707","13.342","0.287","3","24",""
"9","R_3p4lCKY6Edm6tWY","standard","1","9","LP","2.15079707022835","94.715","96.873","97.211","2.496","0.338","3","27",""
"10","R_3p4lCKY6Edm6tWY","standard","1","10","LP","5.5010771219302","98.217","103.72","104.027","5.81","0.307","3","30",""
"11","R_3p4lCKY6Edm6tWY","standard","1","11","LP","30","105.029","135.038","135.331","30.302","0.293","3","33",""
"12","R_3p4lCKY6Edm6tWY","standard","1","12","LP","2.15079707022835","136.349","138.506","138.85","2.501","0.344","3","36",""
"13","R_3p4lCKY6Edm6tWY","standard","1","13","LP","2.15079707022835","139.867","142.025","142.363","2.496","0.338","3","39",""
"14","R_3p4lCKY6Edm6tWY","standard","1","14","LP","1.25738905644119","143.383","144.662","144.987","1.604","0.325","3","42",""
"15","R_3p4lCKY6Edm6tWY","standard","1","15","LP","1.25738905644119","145.988","147.25","147.587","1.599","0.337","3","45",""
"16","R_3p4lCKY6Edm6tWY","standard","1","16","LP","0.661783713916415","148.596","149.266","149.571","0.975","0.305","3","48",""
"17","R_3p4lCKY6Edm6tWY","standard","1","17","LP","0.264713485566566","150.578","150.85","151.162","0.584","0.312","3","51",""
"18","R_3p4lCKY6Edm6tWY","standard","1","18","LP","0.264713485566566","152.179","152.451","152.739","0.56","0.288","3","54",""
"19","R_3p4lCKY6Edm6tWY","standard","1","19","LP","0.264713485566566","153.748","154.021","154.331","0.583","0.31","3","57",""
"20","R_3p4lCKY6Edm6tWY","standard","1","20","LP","0.264713485566566","155.35","155.622","155.987","0.637","0.365","3","60",""
"21","R_3p4lCKY6Edm6tWY","standard","1","21","LP","19.8235243429556","156.998","176.823","177.131","20.133","0.308","3","63",""
"22","R_3p4lCKY6Edm6tWY","standard","1","22","LP","13.0392072382594","178.145","191.195","191.5","13.355","0.305","3","66",""
"23","R_3p4lCKY6Edm6tWY","standard","1","23","LP","8.51632916846187","192.506","201.028","201.363","8.857","0.335","3","69",""
"24","R_3p4lCKY6Edm6tWY","standard","1","24","LP","13.0392072382594","202.374","215.417","215.731","13.357","0.314","3","72",""
"25","R_3p4lCKY6Edm6tWY","standard","1","25","LP","8.51632916846187","216.745","225.271","225.579","8.834","0.308","3","75",""
"26","R_3p4lCKY6Edm6tWY","standard","1","26","LP","3.49090909090909","226.598","230.101","230.435","3.837","0.334","3","78",""
"27","R_3p4lCKY6Edm6tWY","standard","1","27","LP","5.5010771219302","231.442","236.952","237.243","5.801","0.291","3","81",""
"28","R_3p4lCKY6Edm6tWY","standard","1","28","LP","3.49090909090909","238.253","241.757","242.06","3.807","0.303","3","84",""
"29","R_3p4lCKY6Edm6tWY","standard","1","29","LP","19.8235243429556","243.069","262.905","263.211","20.142","0.306","3","87",""
"30","R_3p4lCKY6Edm6tWY","standard","1","30","LP","30","264.218","294.235","294.595","30.377","0.36","3","90",""
"31","R_3p4lCKY6Edm6tWY","standard","1","31","LP","0.264713485566566","295.611","295.882","296.483","0.872","0.601","3","93",""
"32","R_3p4lCKY6Edm6tWY","standard","1","32","LP","13.0392072382594","297.498","310.549","310.979","13.481","0.43","3","96",""
"33","R_3p4lCKY6Edm6tWY","standard","1","33","LP","30","311.987","341.993","342.275","30.288","0.282","3","99",""
"34","R_3p4lCKY6Edm6tWY","standard","1","34","LP","8.51632916846187","343.287","351.814","352.131","8.844","0.317","3","102",""
"35","R_3p4lCKY6Edm6tWY","standard","1","35","LP","1.25738905644119","353.142","354.423","354.771","1.629","0.348","3","105",""
"36","R_3p4lCKY6Edm6tWY","standard","1","36","LP","1.25738905644119","355.78","357.045","357.339","1.559","0.294","3","108",""
"37","R_3p4lCKY6Edm6tWY","standard","1","37","LP","13.0392072382594","358.343","371.386","371.7","13.357","0.314","3","111",""
"38","R_3p4lCKY6Edm6tWY","standard","1","38","LP","3.49090909090909","372.715","376.218","376.643","3.928","0.425","3","114",""
"39","R_3p4lCKY6Edm6tWY","standard","1","39","LP","1.25738905644119","377.655","378.917","379.21","1.555","0.293","3","117",""
"40","R_3p4lCKY6Edm6tWY","standard","1","40","LP","0.264713485566566","380.215","380.487","380.796","0.581","0.309","3","120",""
"41","R_3p4lCKY6Edm6tWY","standard","1","41","LP","8.51632916846187","381.813","390.341","390.659","8.846","0.318","3","123",""
"42","R_3p4lCKY6Edm6tWY","standard","1","42","LP","2.15079707022835","391.669","393.826","394.211","2.542","0.385","3","126",""
"43","R_3p4lCKY6Edm6tWY","standard","1","43","LP","0.661783713916415","395.22","395.891","396.235","1.015","0.344","3","129",""
"44","R_3p4lCKY6Edm6tWY","standard","1","44","LP","3.49090909090909","397.25","400.757","401.075","3.825","0.318","3","132",""
"45","R_3p4lCKY6Edm6tWY","standard","1","45","LP","19.8235243429556","402.086","421.918","422.243","20.157","0.325","3","135",""
"46","R_3p4lCKY6Edm6tWY","standard","1","46","LP","1.25738905644119","423.261","424.526","424.987","1.726","0.461","3","138",""
"47","R_3p4lCKY6Edm6tWY","standard","1","47","LP","30","425.998","456.012","456.275","30.277","0.263","3","141",""
"48","R_3p4lCKY6Edm6tWY","standard","1","48","LP","5.5010771219302","457.294","462.814","463.115","5.821","0.301","3","144",""
"49","R_3p4lCKY6Edm6tWY","standard","1","49","LP","8.51632916846187","464.126","472.652","472.957","8.831","0.305","3","147",""
"50","R_3p4lCKY6Edm6tWY","standard","1","50","LP","30","473.96","503.972","504.219","30.259","0.247","3","150",""
"51","R_3p4lCKY6Edm6tWY","standard","1","51","LP","8.51632916846187","505.221","513.749","514.067","8.846","0.318","3","153",""
"52","R_3p4lCKY6Edm6tWY","standard","1","52","LP","30","515.075","545.085","545.332","30.257","0.247","3","156",""
"53","R_3p4lCKY6Edm6tWY","standard","1","53","LP","0.264713485566566","546.335","546.622","546.939","0.604","0.317","3","159",""
"54","R_3p4lCKY6Edm6tWY","standard","1","54","LP","2.15079707022835","547.949","550.109","550.411","2.462","0.302","3","162",""
"55","R_3p4lCKY6Edm6tWY","standard","1","55","LP","19.8235243429556","551.421","571.254","571.62","20.199","0.366","3","165",""
"56","R_3p4lCKY6Edm6tWY","standard","1","56","LP","0.264713485566566","572.624","572.895","573.42","0.796","0.525","3","168",""
"57","R_3p4lCKY6Edm6tWY","standard","1","57","LP","5.5010771219302","574.422","579.924","580.211","5.789","0.287","3","171",""
"58","R_3p4lCKY6Edm6tWY","standard","1","58","LP","30","581.219","611.224","611.547","30.328","0.323","3","174",""
"59","R_3p4lCKY6Edm6tWY","standard","1","59","LP","0.661783713916415","612.554","613.225","613.675","1.121","0.45","3","177",""
"60","R_3p4lCKY6Edm6tWY","standard","1","60","LP","0.264713485566566","614.683","614.955","615.283","0.6","0.328","3","180",""
"61","R_3p4lCKY6Edm6tWY","standard","1","61","LP","0.264713485566566","616.298","616.569","616.851","0.553","0.282","3","183",""
"62","R_3p4lCKY6Edm6tWY","standard","1","62","LP","19.8235243429556","617.865","637.709","638.075","20.21","0.366","3","186",""
"63","R_3p4lCKY6Edm6tWY","standard","1","63","LP","3.49090909090909","639.085","642.589","642.987","3.902","0.398","3","189",""
"64","R_3p4lCKY6Edm6tWY","standard","1","64","LP","5.5010771219302","643.995","649.516","649.827","5.832","0.311","3","192",""
"65","R_3p4lCKY6Edm6tWY","standard","1","65","LP","13.0392072382594","650.845","663.888","664.22","13.375","0.332","3","195",""
"66","R_3p4lCKY6Edm6tWY","standard","1","66","LP","13.0392072382594","665.224","678.276","678.651","13.427","0.375","3","198",""
"67","R_3p4lCKY6Edm6tWY","standard","1","67","LP","8.51632916846187","679.669","688.196","688.531","8.862","0.335","3","201",""
"68","R_3p4lCKY6Edm6tWY","standard","1","68","LP","2.15079707022835","689.542","691.702","692.011","2.469","0.309","3","204",""
"69","R_3p4lCKY6Edm6tWY","standard","1","69","LP","30","693.015","723.023","723.316","30.301","0.293","3","207",""
"70","R_3p4lCKY6Edm6tWY","standard","1","70","LP","8.51632916846187","724.323","732.848","733.236","8.913","0.388","3","210",""
"71","R_3p4lCKY6Edm6tWY","standard","1","71","LP","13.0392072382594","734.24","747.291","747.643","13.403","0.352","3","213",""
"72","R_3p4lCKY6Edm6tWY","standard","1","72","LP","0.264713485566566","748.651","748.922","749.371","0.72","0.449","3","216",""
"73","R_3p4lCKY6Edm6tWY","standard","1","73","LP","3.49090909090909","750.379","753.871","754.235","3.856","0.364","3","219",""
"74","R_3p4lCKY6Edm6tWY","standard","1","74","LP","0.661783713916415","755.24","755.909","756.227","0.987","0.318","3","222",""
"75","R_3p4lCKY6Edm6tWY","standard","1","75","LP","2.15079707022835","757.235","759.392","759.731","2.496","0.339","3","225",""
"76","R_3p4lCKY6Edm6tWY","standard","1","76","LP","13.0392072382594","760.75","773.8","774.132","13.382","0.332","3","228",""
"77","R_3p4lCKY6Edm6tWY","standard","1","77","LP","3.49090909090909","775.146","778.647","779.092","3.946","0.445","3","231",""
"78","R_3p4lCKY6Edm6tWY","standard","1","78","LP","5.5010771219302","780.103","785.62","785.915","5.812","0.295","3","234",""
"79","R_3p4lCKY6Edm6tWY","standard","1","79","LP","1.25738905644119","786.922","788.192","788.483","1.561","0.291","3","237",""
"80","R_3p4lCKY6Edm6tWY","standard","1","80","LP","30","789.487","819.508","819.804","30.317","0.296","3","240",""
"81","R_3p4lCKY6Edm6tWY","standard","1","81","LP","13.0392072382594","820.819","833.869","834.212","13.393","0.343","3","243",""
"82","R_3p4lCKY6Edm6tWY","standard","1","82","LP","30","835.214","865.224","865.54","30.326","0.316","3","246",""
"83","R_3p4lCKY6Edm6tWY","standard","1","83","LP","19.8235243429556","866.544","886.391","886.772","20.228","0.381","3","249",""
"84","R_3p4lCKY6Edm6tWY","standard","1","84","LP","0.661783713916415","887.782","888.454","888.812","1.03","0.358","3","252",""
"85","R_3p4lCKY6Edm6tWY","standard","2","1","LP","8.51632916846187","0","NaN","0.588","0.588","NaN","0","252",NA
"86","R_3p4lCKY6Edm6tWY","standard","2","2","LP","0.661783713916415","1.592","NaN","1.918","0.326","NaN","0","252",NA
"87","R_3p4lCKY6Edm6tWY","standard","2","3","LP","3.49090909090909","2.919","NaN","3.195","0.276","NaN","0","252",NA
"88","R_3p4lCKY6Edm6tWY","standard","2","4","LP","0.661783713916415","4.205","NaN","4.467","0.262","NaN","0","252",NA
"89","R_3p4lCKY6Edm6tWY","standard","2","5","LP","3.49090909090909","5.485","NaN","5.755","0.27","NaN","0","252",NA
"90","R_3p4lCKY6Edm6tWY","standard","2","6","LP","13.0392072382594","6.76","NaN","6.963","0.203","NaN","0","252",NA
"91","R_3p4lCKY6Edm6tWY","standard","2","7","LP","5.5010771219302","7.982","NaN","8.195","0.213","NaN","0","252",NA
"92","R_3p4lCKY6Edm6tWY","standard","2","8","LP","8.51632916846187","9.2","NaN","9.267","0.067","NaN","0","252",NA
"93","R_3p4lCKY6Edm6tWY","standard","2","9","LP","5.5010771219302","10.284","NaN","10.436","0.152","NaN","0","252",NA
"94","R_3p4lCKY6Edm6tWY","standard","2","10","LP","30","11.436","NaN","11.443","0.007","NaN","0","252",NA
"95","R_3p4lCKY6Edm6tWY","standard","2","11","LP","3.49090909090909","12.462","NaN","12.515","0.053","NaN","0","252",NA
"96","R_3p4lCKY6Edm6tWY","standard","2","12","LP","8.51632916846187","13.517","NaN","13.524","0.007","NaN","0","252",NA
"97","R_3p4lCKY6Edm6tWY","standard","2","13","LP","5.5010771219302","14.528","NaN","14.571","0.043","NaN","0","252",NA
"98","R_3p4lCKY6Edm6tWY","standard","2","14","LP","0.264713485566566","15.581","NaN","15.596","0.015","NaN","0","252",NA
"99","R_3p4lCKY6Edm6tWY","standard","2","15","LP","8.51632916846187","16.606","NaN","16.747","0.141","NaN","0","252",NA
"100","R_3p4lCKY6Edm6tWY","standard","2","16","LP","13.0392072382594","17.756","NaN","17.804","0.048","NaN","0","252",NA
"101","R_3p4lCKY6Edm6tWY","standard","2","17","LP","1.25738905644119","18.814","NaN","18.9","0.086","NaN","0","252",NA
"102","R_3p4lCKY6Edm6tWY","standard","2","18","LP","2.15079707022835","19.918","NaN","20.027","0.109","NaN","0","252",NA
"103","R_3p4lCKY6Edm6tWY","standard","2","19","LP","13.0392072382594","21.036","NaN","21.179","0.143","NaN","0","252",NA
"104","R_3p4lCKY6Edm6tWY","standard","2","20","LP","19.8235243429556","22.191","NaN","22.315","0.124","NaN","0","252",NA
"105","R_3p4lCKY6Edm6tWY","standard","2","21","LP","19.8235243429556","23.32","NaN","23.388","0.068","NaN","0","252",NA
"106","R_3p4lCKY6Edm6tWY","standard","2","22","LP","0.661783713916415","24.398","NaN","24.483","0.085","NaN","0","252",NA
"107","R_3p4lCKY6Edm6tWY","standard","2","23","LP","0.264713485566566","25.501","NaN","25.627","0.126","NaN","0","252",NA
"108","R_3p4lCKY6Edm6tWY","standard","2","24","LP","3.49090909090909","26.636","NaN","26.739","0.103","NaN","0","252",NA
"109","R_3p4lCKY6Edm6tWY","standard","2","25","LP","3.49090909090909","27.744","NaN","27.819","0.075","NaN","0","252",NA
"110","R_3p4lCKY6Edm6tWY","standard","2","26","LP","13.0392072382594","28.824","NaN","28.9","0.076","NaN","0","252",NA
"111","R_3p4lCKY6Edm6tWY","standard","2","27","LP","0.661783713916415","29.902","NaN","30.035","0.133","NaN","0","252",NA
"112","R_3p4lCKY6Edm6tWY","standard","2","28","LP","13.0392072382594","31.036","NaN","31.051","0.015","NaN","0","252",NA
"113","R_3p4lCKY6Edm6tWY","standard","2","29","LP","30","32.062","NaN","32.123","0.061","NaN","0","252",NA
"114","R_3p4lCKY6Edm6tWY","standard","2","30","LP","1.25738905644119","33.135","NaN","33.147","0.012","NaN","0","252",NA
"115","R_3p4lCKY6Edm6tWY","standard","2","31","LP","19.8235243429556","34.159","NaN","34.203","0.044","NaN","0","252",NA
"116","R_3p4lCKY6Edm6tWY","standard","2","32","LP","30","35.215","NaN","35.275","0.06","NaN","0","252",NA
"117","R_3p4lCKY6Edm6tWY","standard","2","33","LP","3.49090909090909","36.286","NaN","36.339","0.053","NaN","0","252",NA
"118","R_3p4lCKY6Edm6tWY","standard","2","34","LP","5.5010771219302","37.359","NaN","37.395","0.036","NaN","0","252",NA
"119","R_3p4lCKY6Edm6tWY","standard","2","35","LP","1.25738905644119","38.412","NaN","38.475","0.063","NaN","0","252",NA
"120","R_3p4lCKY6Edm6tWY","standard","2","36","LP","3.49090909090909","39.483","NaN","39.532","0.049","NaN","0","252",NA
"121","R_3p4lCKY6Edm6tWY","standard","2","37","LP","1.25738905644119","40.539","NaN","40.612","0.073","NaN","0","252",NA
"122","R_3p4lCKY6Edm6tWY","standard","2","38","LP","3.49090909090909","41.613","NaN","41.709","0.096","NaN","0","252",NA
"123","R_3p4lCKY6Edm6tWY","standard","2","39","LP","1.25738905644119","42.717","NaN","42.828","0.111","NaN","0","252",NA
"124","R_3p4lCKY6Edm6tWY","standard","2","40","LP","8.51632916846187","43.834","NaN","43.932","0.098","NaN","0","252",NA
"125","R_3p4lCKY6Edm6tWY","standard","2","41","LP","0.661783713916415","44.933","NaN","45.036","0.103","NaN","0","252",NA
"126","R_3p4lCKY6Edm6tWY","standard","2","42","LP","5.5010771219302","46.042","NaN","46.1","0.058","NaN","0","252",NA
"127","R_3p4lCKY6Edm6tWY","standard","2","43","LP","3.49090909090909","47.117","NaN","47.252","0.135","NaN","0","252",NA
"128","R_3p4lCKY6Edm6tWY","standard","2","44","LP","2.15079707022835","48.256","NaN","48.364","0.108","NaN","0","252",NA
"129","R_3p4lCKY6Edm6tWY","standard","2","45","LP","2.15079707022835","49.368","NaN","49.421","0.053","NaN","0","252",NA
"130","R_3p4lCKY6Edm6tWY","standard","2","46","LP","1.25738905644119","50.426","NaN","50.516","0.09","NaN","0","252",NA
"131","R_3p4lCKY6Edm6tWY","standard","2","47","LP","8.51632916846187","51.52","NaN","51.58","0.06","NaN","0","252",NA
"132","R_3p4lCKY6Edm6tWY","standard","2","48","LP","8.51632916846187","52.586","NaN","52.668","0.082","NaN","0","252",NA
"133","R_3p4lCKY6Edm6tWY","standard","2","49","LP","2.15079707022835","53.674","NaN","53.845","0.171","NaN","0","252",NA
"134","R_3p4lCKY6Edm6tWY","standard","2","50","LP","0.264713485566566","54.858","NaN","55.012","0.154","NaN","0","252",NA
"135","R_3p4lCKY6Edm6tWY","standard","2","51","LP","1.25738905644119","56.02","NaN","56.06","0.04","NaN","0","252",NA
"136","R_3p4lCKY6Edm6tWY","standard","2","52","LP","13.0392072382594","57.065","NaN","57.109","0.044","NaN","0","252",NA
"137","R_3p4lCKY6Edm6tWY","standard","2","53","LP","1.25738905644119","58.119","NaN","58.285","0.166","NaN","0","252",NA
"138","R_3p4lCKY6Edm6tWY","standard","2","54","LP","30","59.288","NaN","59.412","0.124","NaN","0","252",NA
"139","R_3p4lCKY6Edm6tWY","standard","2","55","LP","5.5010771219302","60.413","NaN","60.628","0.215","NaN","0","252",NA
"140","R_3p4lCKY6Edm6tWY","standard","2","56","LP","3.49090909090909","61.642","NaN","61.732","0.09","NaN","0","252",NA
"141","R_3p4lCKY6Edm6tWY","standard","2","57","LP","1.25738905644119","62.747","NaN","62.796","0.049","NaN","0","252",NA
"142","R_3p4lCKY6Edm6tWY","standard","2","58","LP","8.51632916846187","63.803","NaN","63.82","0.017","NaN","0","252",NA
"143","R_3p4lCKY6Edm6tWY","standard","2","59","LP","19.8235243429556","64.824","NaN","64.996","0.172","NaN","0","252",NA
"144","R_3p4lCKY6Edm6tWY","standard","2","60","LP","8.51632916846187","66.01","NaN","66.013","0.003","NaN","0","252",NA
"145","R_3p4lCKY6Edm6tWY","standard","2","61","LP","5.5010771219302","67.019","NaN","67.1","0.081","NaN","0","252",NA
"146","R_3p4lCKY6Edm6tWY","standard","2","62","LP","0.264713485566566","68.106","NaN","68.196","0.09","NaN","0","252",NA
"147","R_3p4lCKY6Edm6tWY","standard","2","63","LP","0.661783713916415","69.204","NaN","69.292","0.088","NaN","0","252",NA
"148","R_3p4lCKY6Edm6tWY","standard","2","64","LP","5.5010771219302","70.296","NaN","70.348","0.052","NaN","0","252",NA
"149","R_3p4lCKY6Edm6tWY","standard","2","65","LP","13.0392072382594","71.348","NaN","71.452","0.104","NaN","0","252",NA
"150","R_3p4lCKY6Edm6tWY","standard","2","66","LP","30","72.46","NaN","72.548","0.088","NaN","0","252",NA
"151","R_3p4lCKY6Edm6tWY","standard","2","67","LP","30","73.552","NaN","73.62","0.068","NaN","0","252",NA
"152","R_3p4lCKY6Edm6tWY","standard","2","68","LP","8.51632916846187","74.634","NaN","74.773","0.139","NaN","0","252",NA
"153","R_3p4lCKY6Edm6tWY","standard","2","69","LP","8.51632916846187","75.785","NaN","75.828","0.043","NaN","0","252",NA
"154","R_3p4lCKY6Edm6tWY","standard","2","70","LP","13.0392072382594","76.838","NaN","77.004","0.166","NaN","0","252",NA
"155","R_3p4lCKY6Edm6tWY","standard","2","71","LP","1.25738905644119","78.023","NaN","78.172","0.149","NaN","0","252",NA
"156","R_3p4lCKY6Edm6tWY","standard","2","72","LP","1.25738905644119","79.191","NaN","79.461","0.27","NaN","0","252",NA
"157","R_3p4lCKY6Edm6tWY","standard","2","73","LP","3.49090909090909","80.472","NaN","80.645","0.173","NaN","0","252",NA
"158","R_3p4lCKY6Edm6tWY","standard","2","74","LP","19.8235243429556","81.655","NaN","81.796","0.141","NaN","0","252",NA
"159","R_3p4lCKY6Edm6tWY","standard","2","75","LP","30","82.807","NaN","82.949","0.142","NaN","0","252",NA
"160","R_3p4lCKY6Edm6tWY","standard","2","76","LP","5.5010771219302","83.959","NaN","84.068","0.109","NaN","0","252",NA
"161","R_3p4lCKY6Edm6tWY","standard","2","77","LP","3.49090909090909","85.078","NaN","85.164","0.086","NaN","0","252",NA
"162","R_3p4lCKY6Edm6tWY","standard","2","78","LP","13.0392072382594","86.18","NaN","86.357","0.177","NaN","0","252",NA
"163","R_3p4lCKY6Edm6tWY","standard","2","79","LP","3.49090909090909","87.367","NaN","87.413","0.046","NaN","0","252",NA
"164","R_3p4lCKY6Edm6tWY","standard","2","80","LP","5.5010771219302","88.423","NaN","88.532","0.109","NaN","0","252",NA
"165","R_3p4lCKY6Edm6tWY","standard","2","81","LP","2.15079707022835","89.537","NaN","89.636","0.099","NaN","0","252",NA
"166","R_3p4lCKY6Edm6tWY","standard","2","82","LP","19.8235243429556","90.647","NaN","90.692","0.045","NaN","0","252",NA
"167","R_3p4lCKY6Edm6tWY","standard","2","83","LP","30","91.703","NaN","91.732","0.029","NaN","0","252",NA
"168","R_3p4lCKY6Edm6tWY","standard","2","84","LP","1.25738905644119","92.742","NaN","92.805","0.063","NaN","0","252",NA
"169","R_3p4lCKY6Edm6tWY","standard","2","85","LP","0.264713485566566","93.813","NaN","93.9","0.087","NaN","0","252",NA
"170","R_3p4lCKY6Edm6tWY","standard","2","86","LP","19.8235243429556","94.905","NaN","94.956","0.051","NaN","0","252",NA
"171","R_3p4lCKY6Edm6tWY","standard","2","87","LP","30","95.961","NaN","96.028","0.067","NaN","0","252",NA
"172","R_3p4lCKY6Edm6tWY","standard","2","88","LP","8.51632916846187","97.048","NaN","97.06","0.012","NaN","0","252",NA
"173","R_3p4lCKY6Edm6tWY","standard","2","89","LP","8.51632916846187","98.072","NaN","98.188","0.116","NaN","0","252",NA
"174","R_3p4lCKY6Edm6tWY","standard","2","90","LP","0.661783713916415","99.207","NaN","99.293","0.086","NaN","0","252",NA
"175","R_3p4lCKY6Edm6tWY","standard","2","91","LP","3.49090909090909","100.311","NaN","100.42","0.109","NaN","0","252",NA
"176","R_3p4lCKY6Edm6tWY","standard","2","92","LP","0.264713485566566","101.43","NaN","101.524","0.094","NaN","0","252",NA
"177","R_3p4lCKY6Edm6tWY","standard","2","93","LP","19.8235243429556","102.529","NaN","102.692","0.163","NaN","0","252",NA
"178","R_3p4lCKY6Edm6tWY","standard","2","94","LP","5.5010771219302","103.701","NaN","103.829","0.128","NaN","0","252",NA
"179","R_3p4lCKY6Edm6tWY","standard","2","95","LP","19.8235243429556","104.836","NaN","104.956","0.12","NaN","0","252",NA
"180","R_3p4lCKY6Edm6tWY","standard","2","96","LP","0.264713485566566","105.975","NaN","106.084","0.109","NaN","0","252",NA
"181","R_3p4lCKY6Edm6tWY","standard","2","97","LP","13.0392072382594","107.085","NaN","107.292","0.207","NaN","0","252",NA
"182","R_3p4lCKY6Edm6tWY","standard","2","98","LP","0.661783713916415","108.31","NaN","108.412","0.102","NaN","0","252",NA
"183","R_3p4lCKY6Edm6tWY","standard","2","99","LP","0.264713485566566","109.416","NaN","109.548","0.132","NaN","0","252",NA
"184","R_3p4lCKY6Edm6tWY","standard","2","100","LP","19.8235243429556","110.565","NaN","110.684","0.119","NaN","0","252",NA
"185","R_3p4lCKY6Edm6tWY","standard","2","101","LP","8.51632916846187","111.701","NaN","111.836","0.135","NaN","0","252",NA
"186","R_3p4lCKY6Edm6tWY","standard","2","102","LP","3.49090909090909","112.854","NaN","112.893","0.039","NaN","0","252",NA
"187","R_3p4lCKY6Edm6tWY","standard","2","103","LP","5.5010771219302","113.896","NaN","114.045","0.149","NaN","0","252",NA
"188","R_3p4lCKY6Edm6tWY","standard","2","104","LP","0.264713485566566","115.048","NaN","115.196","0.148","NaN","0","252",NA
"189","R_3p4lCKY6Edm6tWY","standard","2","105","LP","0.661783713916415","116.213","NaN","116.34","0.127","NaN","0","252",NA
"190","R_3p4lCKY6Edm6tWY","standard","2","106","LP","19.8235243429556","117.35","NaN","117.404","0.054","NaN","0","252",NA
"191","R_3p4lCKY6Edm6tWY","standard","2","107","LP","3.49090909090909","118.405","NaN","118.62","0.215","NaN","0","252",NA
"192","R_3p4lCKY6Edm6tWY","standard","2","108","LP","0.661783713916415","119.625","NaN","119.66","0.035","NaN","0","252",NA
"193","R_3p4lCKY6Edm6tWY","standard","2","109","LP","5.5010771219302","120.678","NaN","120.812","0.134","NaN","0","252",NA
"194","R_3p4lCKY6Edm6tWY","standard","2","110","LP","2.15079707022835","121.814","NaN","121.837","0.023","NaN","0","252",NA
"195","R_3p4lCKY6Edm6tWY","standard","2","111","LP","5.5010771219302","122.844","NaN","123.029","0.185","NaN","0","252",NA
"196","R_3p4lCKY6Edm6tWY","standard","2","112","LP","5.5010771219302","124.036","NaN","124.197","0.161","NaN","0","252",NA
"197","R_3p4lCKY6Edm6tWY","standard","2","113","LP","0.264713485566566","125.203","NaN","125.301","0.098","NaN","0","252",NA
"198","R_3p4lCKY6Edm6tWY","standard","2","114","LP","1.25738905644119","126.308","NaN","126.397","0.089","NaN","0","252",NA
"199","R_3p4lCKY6Edm6tWY","standard","2","115","LP","1.25738905644119","127.4","NaN","127.516","0.116","NaN","0","252",NA
"200","R_3p4lCKY6Edm6tWY","standard","2","116","LP","8.51632916846187","128.519","NaN","128.644","0.125","NaN","0","252",NA
"201","R_3p4lCKY6Edm6tWY","standard","2","117","LP","5.5010771219302","129.649","NaN","129.7","0.051","NaN","0","252",NA
"202","R_3p4lCKY6Edm6tWY","standard","2","118","LP","1.25738905644119","130.72","NaN","130.78","0.06","NaN","0","252",NA
"203","R_3p4lCKY6Edm6tWY","standard","2","119","LP","1.25738905644119","131.791","NaN","131.908","0.117","NaN","0","252",NA
"204","R_3p4lCKY6Edm6tWY","standard","2","120","LP","19.8235243429556","132.909","NaN","133.028","0.119","NaN","0","252",NA
"205","R_3p4lCKY6Edm6tWY","standard","2","121","LP","19.8235243429556","134.033","NaN","134.253","0.22","NaN","0","252",NA
"206","R_3p4lCKY6Edm6tWY","standard","2","122","LP","0.264713485566566","135.264","NaN","135.396","0.132","NaN","0","252",NA
"207","R_3p4lCKY6Edm6tWY","standard","2","123","LP","30","136.416","NaN","136.444","0.028","NaN","0","252",NA
"208","R_3p4lCKY6Edm6tWY","standard","2","124","LP","8.51632916846187","137.454","NaN","137.66","0.206","NaN","0","252",NA
"209","R_3p4lCKY6Edm6tWY","standard","2","125","LP","8.51632916846187","138.668","NaN","138.868","0.2","NaN","0","252",NA
"210","R_3p4lCKY6Edm6tWY","standard","2","126","LP","5.5010771219302","139.886","NaN","140.06","0.174","NaN","0","252",NA
"211","R_3p4lCKY6Edm6tWY","standard","2","127","LP","13.0392072382594","141.07","NaN","141.212","0.142","NaN","0","252",NA
"212","R_3p4lCKY6Edm6tWY","standard","2","128","LP","1.25738905644119","142.221","NaN","142.348","0.127","NaN","0","252",NA
"213","R_3p4lCKY6Edm6tWY","standard","2","129","LP","3.49090909090909","143.349","NaN","143.564","0.215","NaN","0","252",NA
"214","R_3p4lCKY6Edm6tWY","standard","2","130","LP","0.264713485566566","144.57","NaN","144.725","0.155","NaN","0","252",NA
"215","R_3p4lCKY6Edm6tWY","standard","2","131","LP","30","145.737","NaN","145.78","0.043","NaN","0","252",NA
"216","R_3p4lCKY6Edm6tWY","standard","2","132","LP","3.49090909090909","146.791","NaN","146.796","0.005","NaN","0","252",NA
"217","R_3p4lCKY6Edm6tWY","standard","2","133","LP","8.51632916846187","147.815","NaN","147.837","0.022","NaN","0","252",NA
"218","R_3p4lCKY6Edm6tWY","standard","2","134","LP","2.15079707022835","148.854","NaN","148.876","0.022","NaN","0","252",NA
"219","R_3p4lCKY6Edm6tWY","standard","2","135","LP","0.661783713916415","149.894","NaN","150.1","0.206","NaN","0","252",NA
"220","R_3p4lCKY6Edm6tWY","standard","2","136","LP","5.5010771219302","151.109","NaN","151.268","0.159","NaN","0","252",NA
"221","R_3p4lCKY6Edm6tWY","standard","2","137","LP","0.661783713916415","152.275","NaN","152.292","0.017","NaN","0","252",NA
"222","R_3p4lCKY6Edm6tWY","standard","2","138","LP","0.661783713916415","153.299","NaN","153.348","0.049","NaN","0","252",NA
"223","R_3p4lCKY6Edm6tWY","standard","2","139","LP","0.264713485566566","154.349","NaN","154.532","0.183","NaN","0","252",NA
"224","R_3p4lCKY6Edm6tWY","standard","2","140","LP","3.49090909090909","155.538","NaN","155.573","0.035","NaN","0","252",NA
"225","R_3p4lCKY6Edm6tWY","standard","2","141","LP","8.51632916846187","156.591","NaN","156.749","0.158","NaN","0","252",NA
"226","R_3p4lCKY6Edm6tWY","standard","2","142","LP","0.264713485566566","157.758","NaN","157.788","0.03","NaN","0","252",NA
"227","R_3p4lCKY6Edm6tWY","standard","2","143","LP","19.8235243429556","158.798","NaN","158.828","0.03","NaN","0","252",NA
"228","R_3p4lCKY6Edm6tWY","standard","2","144","LP","2.15079707022835","159.836","NaN","159.868","0.032","NaN","0","252",NA
"229","R_3p4lCKY6Edm6tWY","standard","2","145","LP","0.661783713916415","160.876","NaN","160.908","0.032","NaN","0","252",NA
"230","R_3p4lCKY6Edm6tWY","standard","2","146","LP","1.25738905644119","161.916","NaN","161.956","0.04","NaN","0","252",NA
"231","R_3p4lCKY6Edm6tWY","standard","2","147","LP","2.15079707022835","162.972","NaN","163.132","0.16","NaN","0","252",NA
"232","R_3p4lCKY6Edm6tWY","standard","2","148","LP","0.661783713916415","164.139","NaN","164.157","0.018","NaN","0","252",NA
"233","R_3p4lCKY6Edm6tWY","standard","2","149","LP","0.661783713916415","165.161","NaN","165.165","0.004","NaN","0","252",NA
"234","R_3p4lCKY6Edm6tWY","standard","2","150","LP","0.264713485566566","166.169","NaN","166.332","0.163","NaN","0","252",NA
"235","R_3p4lCKY6Edm6tWY","standard","2","151","LP","8.51632916846187","167.336","NaN","167.517","0.181","NaN","0","252",NA
"236","R_3p4lCKY6Edm6tWY","standard","2","152","LP","3.49090909090909","168.519","NaN","168.524","0.005","NaN","0","252",NA
"237","R_3p4lCKY6Edm6tWY","standard","2","153","LP","0.264713485566566","169.533","NaN","169.74","0.207","NaN","0","252",NA
"238","R_3p4lCKY6Edm6tWY","standard","2","154","LP","2.15079707022835","170.741","NaN","170.941","0.2","NaN","0","252",NA
"239","R_3p4lCKY6Edm6tWY","standard","2","155","LP","0.661783713916415","171.948","NaN","172.164","0.216","NaN","0","252",NA
"240","R_3p4lCKY6Edm6tWY","standard","2","156","LP","13.0392072382594","173.172","NaN","173.173","0.001","NaN","0","252",NA
"241","R_3p4lCKY6Edm6tWY","standard","2","157","LP","5.5010771219302","174.18","NaN","174.341","0.161","NaN","0","252",NA
"242","R_3p4lCKY6Edm6tWY","standard","2","158","LP","30","175.346","NaN","175.38","0.034","NaN","0","252",NA
"243","R_3p4lCKY6Edm6tWY","standard","2","159","LP","5.5010771219302","176.386","NaN","176.413","0.027","NaN","0","252",NA
"244","R_3p4lCKY6Edm6tWY","standard","2","160","LP","19.8235243429556","177.423","NaN","177.444","0.021","NaN","0","252",NA
"245","R_3p4lCKY6Edm6tWY","standard","2","161","LP","30","178.463","NaN","178.492","0.029","NaN","0","252",NA
"246","R_3p4lCKY6Edm6tWY","standard","2","162","LP","2.15079707022835","179.504","NaN","179.564","0.06","NaN","0","252",NA
"247","R_3p4lCKY6Edm6tWY","standard","2","163","LP","8.51632916846187","180.576","NaN","180.652","0.076","NaN","0","252",NA
"248","R_3p4lCKY6Edm6tWY","standard","2","164","LP","3.49090909090909","181.665","NaN","181.692","0.027","NaN","0","252",NA
"249","R_3p4lCKY6Edm6tWY","standard","2","165","LP","3.49090909090909","182.706","NaN","182.732","0.026","NaN","0","252",NA
"250","R_3p4lCKY6Edm6tWY","standard","2","166","LP","19.8235243429556","183.737","NaN","183.884","0.147","NaN","0","252",NA
"251","R_3p4lCKY6Edm6tWY","standard","2","167","LP","30","184.898","NaN","184.973","0.075","NaN","0","252",NA
"252","R_3p4lCKY6Edm6tWY","standard","2","168","LP","30","185.98","NaN","186.084","0.104","NaN","0","252",NA
"253","R_3p4lCKY6Edm6tWY","standard","2","169","LP","0.661783713916415","187.104","NaN","187.14","0.036","NaN","0","252",NA
"254","R_3p4lCKY6Edm6tWY","standard","2","170","LP","0.661783713916415","188.16","NaN","188.477","0.317","NaN","0","252",NA
"255","R_3p4lCKY6Edm6tWY","standard","2","171","LP","30","189.487","NaN","189.564","0.077","NaN","0","252",NA
"256","R_3p4lCKY6Edm6tWY","standard","2","172","LP","1.25738905644119","190.572","NaN","190.669","0.097","NaN","0","252",NA
"257","R_3p4lCKY6Edm6tWY","standard","2","173","LP","30","191.678","NaN","191.717","0.039","NaN","0","252",NA
"258","R_3p4lCKY6Edm6tWY","standard","2","174","LP","30","192.719","NaN","192.869","0.15","NaN","0","252",NA
"259","R_3p4lCKY6Edm6tWY","standard","2","175","LP","5.5010771219302","193.876","NaN","193.964","0.088","NaN","0","252",NA
"260","R_3p4lCKY6Edm6tWY","standard","2","176","LP","19.8235243429556","194.972","NaN","195.069","0.097","NaN","0","252",NA
"261","R_3p4lCKY6Edm6tWY","standard","2","177","LP","8.51632916846187","196.076","NaN","196.228","0.152","NaN","0","252",NA
"262","R_3p4lCKY6Edm6tWY","standard","2","178","LP","1.25738905644119","197.242","NaN","197.38","0.138","NaN","0","252",NA
"263","R_3p4lCKY6Edm6tWY","standard","2","179","LP","1.25738905644119","198.394","NaN","198.548","0.154","NaN","0","252",NA
"264","R_3p4lCKY6Edm6tWY","standard","2","180","LP","30","199.559","NaN","199.636","0.077","NaN","0","252",NA
"265","R_3p4lCKY6Edm6tWY","standard","2","181","LP","30","200.646","NaN","200.868","0.222","NaN","0","252",NA
"266","R_3p4lCKY6Edm6tWY","standard","2","182","LP","0.661783713916415","201.872","NaN","201.9","0.028","NaN","0","252",NA
"267","R_3p4lCKY6Edm6tWY","standard","2","183","LP","1.25738905644119","202.917","NaN","203.036","0.119","NaN","0","252",NA
"268","R_3p4lCKY6Edm6tWY","standard","2","184","LP","1.25738905644119","204.045","NaN","204.269","0.224","NaN","0","252",NA
"269","R_3p4lCKY6Edm6tWY","standard","2","185","LP","30","205.283","NaN","205.365","0.082","NaN","0","252",NA
"270","R_3p4lCKY6Edm6tWY","standard","2","186","LP","13.0392072382594","206.371","NaN","206.501","0.13","NaN","0","252",NA
"271","R_3p4lCKY6Edm6tWY","standard","2","187","LP","0.661783713916415","207.508","NaN","207.564","0.056","NaN","0","252",NA
"272","R_3p4lCKY6Edm6tWY","standard","2","188","LP","5.5010771219302","208.578","NaN","208.661","0.083","NaN","0","252",NA
"273","R_3p4lCKY6Edm6tWY","standard","2","189","LP","30","209.679","NaN","209.789","0.11","NaN","0","252",NA
"274","R_3p4lCKY6Edm6tWY","standard","2","190","LP","3.49090909090909","210.799","NaN","210.812","0.013","NaN","0","252",NA
"275","R_3p4lCKY6Edm6tWY","standard","2","191","LP","3.49090909090909","211.818","NaN","211.988","0.17","NaN","0","252",NA
"276","R_3p4lCKY6Edm6tWY","standard","2","192","LP","1.25738905644119","213.006","NaN","213.149","0.143","NaN","0","252",NA
"277","R_3p4lCKY6Edm6tWY","standard","2","193","LP","5.5010771219302","214.16","NaN","214.197","0.037","NaN","0","252",NA
"278","R_3p4lCKY6Edm6tWY","standard","2","194","LP","5.5010771219302","215.2","NaN","215.276","0.076","NaN","0","252",NA
"279","R_3p4lCKY6Edm6tWY","standard","2","195","LP","3.49090909090909","216.286","NaN","216.388","0.102","NaN","0","252",NA
"280","R_3p4lCKY6Edm6tWY","standard","2","196","LP","19.8235243429556","217.406","NaN","217.517","0.111","NaN","0","252",NA
"281","R_3p4lCKY6Edm6tWY","standard","2","197","LP","0.264713485566566","218.519","NaN","218.612","0.093","NaN","0","252",NA
"282","R_3p4lCKY6Edm6tWY","standard","2","198","LP","5.5010771219302","219.617","NaN","219.804","0.187","NaN","0","252",NA
"283","R_3p4lCKY6Edm6tWY","standard","2","199","LP","3.49090909090909","220.805","NaN","221.028","0.223","NaN","0","252",NA
"284","R_3p4lCKY6Edm6tWY","standard","2","200","LP","19.8235243429556","222.036","NaN","222.22","0.184","NaN","0","252",NA
"285","R_3p4lCKY6Edm6tWY","standard","2","201","LP","5.5010771219302","223.229","NaN","223.269","0.04","NaN","0","252",NA
"286","R_3p4lCKY6Edm6tWY","standard","2","202","LP","0.661783713916415","224.284","NaN","224.493","0.209","NaN","0","252",NA
"287","R_3p4lCKY6Edm6tWY","standard","2","203","LP","3.49090909090909","225.5","NaN","225.66","0.16","NaN","0","252",NA
"288","R_3p4lCKY6Edm6tWY","standard","2","204","LP","8.51632916846187","226.666","NaN","226.716","0.05","NaN","0","252",NA
"289","R_3p4lCKY6Edm6tWY","standard","2","205","LP","0.661783713916415","227.718","NaN","227.852","0.134","NaN","0","252",NA
"290","R_3p4lCKY6Edm6tWY","standard","2","206","LP","0.264713485566566","228.859","NaN","228.9","0.041","NaN","0","252",NA
"291","R_3p4lCKY6Edm6tWY","standard","2","207","LP","5.5010771219302","229.915","NaN","229.98","0.065","NaN","0","252",NA
"292","R_3p4lCKY6Edm6tWY","standard","2","208","LP","13.0392072382594","230.987","NaN","231.108","0.121","NaN","0","252",NA
"293","R_3p4lCKY6Edm6tWY","standard","2","209","LP","19.8235243429556","232.109","NaN","232.228","0.119","NaN","0","252",NA
"294","R_3p4lCKY6Edm6tWY","standard","2","210","LP","0.661783713916415","233.244","NaN","233.341","0.097","NaN","0","252",NA
"295","R_3p4lCKY6Edm6tWY","standard","2","211","LP","0.661783713916415","234.35","NaN","234.404","0.054","NaN","0","252",NA
"296","R_3p4lCKY6Edm6tWY","standard","2","212","LP","8.51632916846187","235.409","NaN","235.42","0.011","NaN","0","252",NA
"297","R_3p4lCKY6Edm6tWY","standard","2","213","LP","13.0392072382594","236.429","NaN","236.492","0.063","NaN","0","252",NA
"298","R_3p4lCKY6Edm6tWY","standard","2","214","LP","13.0392072382594","237.501","NaN","237.532","0.031","NaN","0","252",NA
"299","R_3p4lCKY6Edm6tWY","standard","2","215","LP","0.661783713916415","238.542","NaN","238.556","0.014","NaN","0","252",NA
"300","R_3p4lCKY6Edm6tWY","standard","2","216","LP","5.5010771219302","239.567","NaN","239.58","0.013","NaN","0","252",NA
"301","R_3p4lCKY6Edm6tWY","standard","2","217","LP","2.15079707022835","240.591","NaN","240.708","0.117","NaN","0","252",NA
"302","R_3p4lCKY6Edm6tWY","standard","2","218","LP","13.0392072382594","241.712","NaN","241.884","0.172","NaN","0","252",NA
"303","R_3p4lCKY6Edm6tWY","standard","2","219","LP","13.0392072382594","242.894","NaN","243.029","0.135","NaN","0","252",NA
"304","R_3p4lCKY6Edm6tWY","standard","2","220","LP","30","244.047","NaN","244.06","0.013","NaN","0","252",NA
"305","R_3p4lCKY6Edm6tWY","standard","2","221","LP","3.49090909090909","245.072","NaN","245.124","0.052","NaN","0","252",NA
"306","R_3p4lCKY6Edm6tWY","standard","2","222","LP","1.25738905644119","246.129","NaN","246.229","0.1","NaN","0","252",NA
"307","R_3p4lCKY6Edm6tWY","standard","2","223","LP","3.49090909090909","247.232","NaN","247.3","0.068","NaN","0","252",NA
"308","R_3p4lCKY6Edm6tWY","standard","2","224","LP","1.25738905644119","248.307","NaN","248.308","0.001","NaN","0","252",NA
"309","R_3p4lCKY6Edm6tWY","standard","2","225","LP","0.264713485566566","249.316","NaN","249.413","0.097","NaN","0","252",NA
"310","R_3p4lCKY6Edm6tWY","standard","2","226","LP","8.51632916846187","250.42","NaN","250.501","0.081","NaN","0","252",NA
"311","R_3p4lCKY6Edm6tWY","standard","2","227","LP","0.264713485566566","251.509","NaN","251.517","0.008","NaN","0","252",NA
"312","R_3p4lCKY6Edm6tWY","standard","2","228","LP","30","252.518","NaN","252.588","0.07","NaN","0","252",NA
"313","R_3p4lCKY6Edm6tWY","standard","2","229","LP","30","253.606","NaN","253.773","0.167","NaN","0","252",NA
"314","R_3p4lCKY6Edm6tWY","standard","2","230","LP","5.5010771219302","254.791","NaN","254.868","0.077","NaN","0","252",NA
"315","R_3p4lCKY6Edm6tWY","standard","2","231","LP","5.5010771219302","255.878","NaN","255.988","0.11","NaN","0","252",NA
"316","R_3p4lCKY6Edm6tWY","standard","2","232","LP","5.5010771219302","256.998","NaN","257.188","0.19","NaN","0","252",NA
"317","R_3p4lCKY6Edm6tWY","standard","2","233","LP","5.5010771219302","258.199","NaN","258.293","0.094","NaN","0","252",NA
"318","R_3p4lCKY6Edm6tWY","standard","2","234","LP","30","259.303","NaN","259.436","0.133","NaN","0","252",NA
"319","R_3p4lCKY6Edm6tWY","standard","2","235","LP","0.661783713916415","260.454","NaN","260.566","0.112","NaN","0","252",NA
"320","R_3p4lCKY6Edm6tWY","standard","2","236","LP","3.49090909090909","261.574","NaN","261.774","0.2","NaN","0","252",NA
"321","R_3p4lCKY6Edm6tWY","standard","2","237","LP","19.8235243429556","262.775","NaN","262.828","0.053","NaN","0","252",NA
"322","R_3p4lCKY6Edm6tWY","standard","2","238","LP","30","263.831","NaN","263.964","0.133","NaN","0","252",NA
"323","R_3p4lCKY6Edm6tWY","standard","2","239","LP","5.5010771219302","264.981","NaN","265.045","0.064","NaN","0","252",NA
"324","R_3p4lCKY6Edm6tWY","standard","2","240","LP","30","266.053","NaN","266.22","0.167","NaN","0","252",NA
"325","R_3p4lCKY6Edm6tWY","standard","2","241","LP","30","267.222","NaN","267.373","0.151","NaN","0","252",NA
"326","R_3p4lCKY6Edm6tWY","standard","2","242","LP","13.0392072382594","268.389","NaN","268.492","0.103","NaN","0","252",NA
"327","R_3p4lCKY6Edm6tWY","standard","2","243","LP","3.49090909090909","269.5","NaN","269.612","0.112","NaN","0","252",NA
"328","R_3p4lCKY6Edm6tWY","standard","2","244","LP","1.25738905644119","270.614","NaN","270.82","0.206","NaN","0","252",NA
"329","R_3p4lCKY6Edm6tWY","standard","2","245","LP","8.51632916846187","271.829","NaN","271.892","0.063","NaN","0","252",NA
"330","R_3p4lCKY6Edm6tWY","standard","2","246","LP","3.49090909090909","272.902","NaN","273.02","0.118","NaN","0","252",NA
"331","R_3p4lCKY6Edm6tWY","standard","2","247","LP","1.25738905644119","274.021","NaN","274.14","0.119","NaN","0","252",NA
"332","R_3p4lCKY6Edm6tWY","standard","2","248","LP","13.0392072382594","275.157","NaN","275.205","0.048","NaN","0","252",NA
"333","R_3p4lCKY6Edm6tWY","standard","2","249","LP","3.49090909090909","276.214","NaN","276.324","0.11","NaN","0","252",NA
"334","R_3p4lCKY6Edm6tWY","standard","2","250","LP","13.0392072382594","277.334","NaN","277.38","0.046","NaN","0","252",NA
"335","R_3p4lCKY6Edm6tWY","standard","2","251","LP","0.661783713916415","278.389","NaN","278.461","0.072","NaN","0","252",NA
"336","R_3p4lCKY6Edm6tWY","standard","2","252","LP","1.25738905644119","279.478","NaN","279.597","0.119","NaN","0","252",NA
"337","R_3p4lCKY6Edm6tWY","standard","2","253","LP","13.0392072382594","280.601","NaN","280.757","0.156","NaN","0","252",NA
"338","R_3p4lCKY6Edm6tWY","standard","2","254","LP","3.49090909090909","281.766","NaN","281.908","0.142","NaN","0","252",NA
"339","R_3p4lCKY6Edm6tWY","standard","2","255","LP","30","282.91","NaN","282.997","0.087","NaN","0","252",NA
"340","R_3p4lCKY6Edm6tWY","standard","2","256","LP","2.15079707022835","284.007","NaN","284.061","0.054","NaN","0","252",NA
"341","R_3p4lCKY6Edm6tWY","standard","2","257","LP","1.25738905644119","285.08","NaN","285.084","0.004","NaN","0","252",NA
"342","R_3p4lCKY6Edm6tWY","standard","2","258","LP","1.25738905644119","286.104","NaN","286.252","0.148","NaN","0","252",NA
"343","R_3p4lCKY6Edm6tWY","standard","2","259","LP","5.5010771219302","287.271","NaN","287.293","0.022","NaN","0","252",NA
"344","R_3p4lCKY6Edm6tWY","standard","2","260","LP","5.5010771219302","288.312","NaN","288.333","0.021","NaN","0","252",NA
"345","R_3p4lCKY6Edm6tWY","standard","2","261","LP","2.15079707022835","289.334","NaN","289.444","0.11","NaN","0","252",NA
"346","R_3p4lCKY6Edm6tWY","standard","2","262","LP","0.264713485566566","290.456","NaN","290.516","0.06","NaN","0","252",NA
"347","R_3p4lCKY6Edm6tWY","standard","2","263","LP","5.5010771219302","291.518","NaN","291.7","0.182","NaN","0","252",NA
"348","R_3p4lCKY6Edm6tWY","standard","2","264","LP","13.0392072382594","292.712","NaN","292.74","0.028","NaN","0","252",NA
"349","R_3p4lCKY6Edm6tWY","standard","2","265","LP","30","293.752","NaN","293.78","0.028","NaN","0","252",NA
"350","R_3p4lCKY6Edm6tWY","standard","2","266","LP","1.25738905644119","294.792","NaN","294.9","0.108","NaN","0","252",NA
"351","R_3p4lCKY6Edm6tWY","standard","2","267","LP","13.0392072382594","295.91","NaN","295.997","0.087","NaN","0","252",NA
"352","R_3p4lCKY6Edm6tWY","standard","2","268","LP","0.264713485566566","297.014","NaN","297.141","0.127","NaN","0","252",NA
"353","R_3p4lCKY6Edm6tWY","standard","2","269","LP","30","298.145","NaN","298.269","0.124","NaN","0","252",NA
"354","R_3p4lCKY6Edm6tWY","standard","2","270","LP","3.49090909090909","299.273","NaN","299.373","0.1","NaN","0","252",NA
"355","R_3p4lCKY6Edm6tWY","standard","2","271","LP","13.0392072382594","300.388","NaN","300.484","0.096","NaN","0","252",NA
"356","R_3p4lCKY6Edm6tWY","standard","2","272","LP","19.8235243429556","301.491","NaN","301.542","0.051","NaN","0","252",NA
"357","R_3p4lCKY6Edm6tWY","standard","2","273","LP","30","302.547","NaN","302.614","0.067","NaN","0","252",NA
"358","R_3p4lCKY6Edm6tWY","standard","2","274","LP","0.264713485566566","303.618","NaN","303.78","0.162","NaN","0","252",NA
"359","R_3p4lCKY6Edm6tWY","standard","2","275","LP","3.49090909090909","304.796","NaN","304.934","0.138","NaN","0","252",NA
"360","R_3p4lCKY6Edm6tWY","standard","2","276","LP","0.661783713916415","305.951","NaN","306.157","0.206","NaN","0","252",NA
"361","R_3p4lCKY6Edm6tWY","standard","2","277","LP","30","307.161","NaN","307.3","0.139","NaN","0","252",NA
"362","R_3p4lCKY6Edm6tWY","standard","2","278","LP","13.0392072382594","308.319","NaN","308.372","0.053","NaN","0","252",NA
"363","R_3p4lCKY6Edm6tWY","standard","2","279","LP","1.25738905644119","309.389","NaN","309.501","0.112","NaN","0","252",NA
"364","R_3p4lCKY6Edm6tWY","standard","2","280","LP","0.661783713916415","310.51","NaN","310.66","0.15","NaN","0","252",NA
"365","R_3p4lCKY6Edm6tWY","standard","2","281","LP","19.8235243429556","311.668","NaN","311.78","0.112","NaN","0","252",NA
"366","R_3p4lCKY6Edm6tWY","standard","2","282","LP","3.49090909090909","312.796","NaN","312.901","0.105","NaN","0","252",NA
"367","R_3p4lCKY6Edm6tWY","standard","2","283","LP","1.25738905644119","313.916","NaN","314.013","0.097","NaN","0","252",NA
"368","R_3p4lCKY6Edm6tWY","standard","2","284","LP","13.0392072382594","315.017","NaN","315.101","0.084","NaN","0","252",NA
"369","R_3p4lCKY6Edm6tWY","standard","2","285","LP","19.8235243429556","316.107","NaN","316.156","0.049","NaN","0","252",NA
"370","R_3p4lCKY6Edm6tWY","standard","2","286","LP","0.661783713916415","317.161","NaN","317.276","0.115","NaN","0","252",NA
"371","R_3p4lCKY6Edm6tWY","standard","2","287","LP","2.15079707022835","318.295","NaN","318.388","0.093","NaN","0","252",NA
"372","R_3p4lCKY6Edm6tWY","standard","2","288","LP","1.25738905644119","319.397","NaN","319.62","0.223","NaN","0","252",NA
"373","R_3p4lCKY6Edm6tWY","standard","2","289","LP","19.8235243429556","320.631","NaN","320.749","0.118","NaN","0","252",NA
"374","R_3p4lCKY6Edm6tWY","standard","2","290","LP","0.264713485566566","321.766","NaN","321.845","0.079","NaN","0","252",NA
"375","R_3p4lCKY6Edm6tWY","standard","2","291","LP","2.15079707022835","322.848","NaN","322.948","0.1","NaN","0","252",NA
"376","R_3p4lCKY6Edm6tWY","standard","2","292","LP","2.15079707022835","323.958","NaN","323.981","0.023","NaN","0","252",NA
"377","R_3p4lCKY6Edm6tWY","standard","2","293","LP","30","324.997","NaN","325.052","0.055","NaN","0","252",NA
"378","R_3p4lCKY6Edm6tWY","standard","2","294","LP","3.49090909090909","326.07","NaN","326.109","0.039","NaN","0","252",NA
"379","R_3p4lCKY6Edm6tWY","standard","2","295","LP","5.5010771219302","327.112","NaN","327.213","0.101","NaN","0","252",NA
"380","R_3p4lCKY6Edm6tWY","standard","2","296","LP","8.51632916846187","328.217","NaN","328.373","0.156","NaN","0","252",NA
"381","R_3p4lCKY6Edm6tWY","standard","2","297","LP","0.661783713916415","329.382","NaN","329.485","0.103","NaN","0","252",NA
"382","R_3p4lCKY6Edm6tWY","standard","2","298","LP","13.0392072382594","330.502","NaN","330.556","0.054","NaN","0","252",NA
"383","R_3p4lCKY6Edm6tWY","standard","2","299","LP","5.5010771219302","331.575","NaN","331.66","0.085","NaN","0","252",NA
"384","R_3p4lCKY6Edm6tWY","standard","2","300","LP","2.15079707022835","332.668","NaN","332.836","0.168","NaN","0","252",NA
"385","R_3p4lCKY6Edm6tWY","standard","2","301","LP","2.15079707022835","333.847","NaN","333.916","0.069","NaN","0","252",NA
"386","R_3p4lCKY6Edm6tWY","standard","2","302","LP","0.661783713916415","334.919","NaN","335.077","0.158","NaN","0","252",NA
"387","R_3p4lCKY6Edm6tWY","standard","2","303","LP","3.49090909090909","336.087","NaN","336.19","0.103","NaN","0","252",NA
"388","R_3p4lCKY6Edm6tWY","standard","2","304","LP","30","337.192","NaN","337.389","0.197","NaN","0","252",NA
"389","R_3p4lCKY6Edm6tWY","standard","2","305","LP","0.661783713916415","338.408","NaN","338.573","0.165","NaN","0","252",NA
"390","R_3p4lCKY6Edm6tWY","standard","2","306","LP","5.5010771219302","339.591","NaN","339.677","0.086","NaN","0","252",NA
"391","R_3p4lCKY6Edm6tWY","standard","2","307","LP","13.0392072382594","340.693","NaN","340.876","0.183","NaN","0","252",NA
"392","R_3p4lCKY6Edm6tWY","standard","2","308","LP","0.661783713916415","341.894","NaN","342.037","0.143","NaN","0","252",NA
"393","R_3p4lCKY6Edm6tWY","standard","2","309","LP","5.5010771219302","343.046","NaN","343.108","0.062","NaN","0","252",NA
"394","R_3p4lCKY6Edm6tWY","standard","2","310","LP","5.5010771219302","344.118","NaN","344.188","0.07","NaN","0","252",NA
"395","R_3p4lCKY6Edm6tWY","standard","2","311","LP","2.15079707022835","345.207","NaN","345.309","0.102","NaN","0","252",NA
"396","R_3p4lCKY6Edm6tWY","standard","2","312","LP","19.8235243429556","346.313","NaN","346.373","0.06","NaN","0","252",NA
"397","R_3p4lCKY6Edm6tWY","standard","2","313","LP","1.25738905644119","347.384","NaN","347.453","0.069","NaN","0","252",NA
"398","R_3p4lCKY6Edm6tWY","standard","2","314","LP","8.51632916846187","348.456","NaN","348.612","0.156","NaN","0","252",NA
"399","R_3p4lCKY6Edm6tWY","standard","2","315","LP","13.0392072382594","349.623","NaN","349.676","0.053","NaN","0","252",NA
"400","R_3p4lCKY6Edm6tWY","standard","2","316","LP","30","350.681","NaN","350.75","0.069","NaN","0","252",NA
"401","R_3p4lCKY6Edm6tWY","standard","2","317","LP","5.5010771219302","351.768","NaN","351.828","0.06","NaN","0","252",NA
"402","R_3p4lCKY6Edm6tWY","standard","2","318","LP","3.49090909090909","352.834","NaN","352.909","0.075","NaN","0","252",NA
"403","R_3p4lCKY6Edm6tWY","standard","2","319","LP","1.25738905644119","353.916","NaN","354.069","0.153","NaN","0","252",NA
"404","R_3p4lCKY6Edm6tWY","standard","2","320","LP","0.264713485566566","355.08","NaN","355.156","0.076","NaN","0","252",NA
"405","R_3p4lCKY6Edm6tWY","standard","2","321","LP","3.49090909090909","356.168","NaN","356.204","0.036","NaN","0","252",NA
"406","R_3p4lCKY6Edm6tWY","standard","2","322","LP","2.15079707022835","357.225","NaN","357.302","0.077","NaN","0","252",NA
"407","R_3p4lCKY6Edm6tWY","standard","2","323","LP","2.15079707022835","358.312","NaN","358.381","0.069","NaN","0","252",NA
"408","R_3p4lCKY6Edm6tWY","standard","2","324","LP","1.25738905644119","359.4","NaN","359.533","0.133","NaN","0","252",NA
"409","R_3p4lCKY6Edm6tWY","standard","2","325","LP","2.15079707022835","360.534","NaN","360.644","0.11","NaN","0","252",NA
"410","R_3p4lCKY6Edm6tWY","standard","2","326","LP","2.15079707022835","361.652","NaN","361.796","0.144","NaN","0","252",NA
"411","R_3p4lCKY6Edm6tWY","standard","2","327","LP","19.8235243429556","362.805","NaN","362.925","0.12","NaN","0","252",NA
"412","R_3p4lCKY6Edm6tWY","standard","2","328","LP","0.661783713916415","363.929","NaN","364.069","0.14","NaN","0","252",NA
"413","R_3p4lCKY6Edm6tWY","standard","2","329","LP","2.15079707022835","365.074","NaN","365.158","0.084","NaN","0","252",NA
"414","R_3p4lCKY6Edm6tWY","standard","2","330","LP","2.15079707022835","366.176","NaN","366.34","0.164","NaN","0","252",NA
"415","R_3p4lCKY6Edm6tWY","standard","2","331","LP","13.0392072382594","367.359","NaN","367.397","0.038","NaN","0","252",NA
"416","R_3p4lCKY6Edm6tWY","standard","2","332","LP","8.51632916846187","368.405","NaN","368.62","0.215","NaN","0","252",NA
"417","R_3p4lCKY6Edm6tWY","standard","2","333","LP","19.8235243429556","369.625","NaN","369.766","0.141","NaN","0","252",NA
"418","R_3p4lCKY6Edm6tWY","standard","2","334","LP","5.5010771219302","370.783","NaN","370.949","0.166","NaN","0","252",NA
"419","R_3p4lCKY6Edm6tWY","standard","2","335","LP","0.661783713916415","371.967","NaN","372.005","0.038","NaN","0","252",NA
"420","R_3p4lCKY6Edm6tWY","standard","2","336","LP","3.49090909090909","373.025","NaN","373.14","0.115","NaN","0","252",NA
"421","R_3p4lCKY6Edm6tWY","standard","2","337","LP","13.0392072382594","374.159","NaN","374.349","0.19","NaN","0","252",NA
"422","R_3p4lCKY6Edm6tWY","standard","2","338","LP","1.25738905644119","375.359","NaN","375.405","0.046","NaN","0","252",NA
"423","R_3p4lCKY6Edm6tWY","standard","2","339","LP","13.0392072382594","376.414","NaN","376.629","0.215","NaN","0","252",NA
"424","R_3p4lCKY6Edm6tWY","standard","2","340","LP","1.25738905644119","377.645","NaN","377.701","0.056","NaN","0","252",NA
"425","R_3p4lCKY6Edm6tWY","standard","2","341","LP","1.25738905644119","378.719","NaN","378.845","0.126","NaN","0","252",NA
"426","R_3p4lCKY6Edm6tWY","standard","2","342","LP","0.661783713916415","379.852","NaN","380.092","0.24","NaN","0","252",NA
"427","R_3p4lCKY6Edm6tWY","standard","2","343","LP","0.661783713916415","381.096","NaN","381.261","0.165","NaN","0","252",NA
"428","R_3p4lCKY6Edm6tWY","standard","2","344","LP","5.5010771219302","382.269","NaN","382.404","0.135","NaN","0","252",NA
"429","R_3p4lCKY6Edm6tWY","standard","2","345","LP","30","383.41","NaN","383.436","0.026","NaN","0","252",NA
"430","R_3p4lCKY6Edm6tWY","standard","2","346","LP","0.661783713916415","384.44","NaN","384.501","0.061","NaN","0","252",NA
"431","R_3p4lCKY6Edm6tWY","standard","2","347","LP","0.661783713916415","385.517","NaN","385.62","0.103","NaN","0","252",NA
"432","R_3p4lCKY6Edm6tWY","standard","2","348","LP","0.661783713916415","386.636","NaN","386.789","0.153","NaN","0","252",NA
"433","R_3p4lCKY6Edm6tWY","standard","2","349","LP","2.15079707022835","387.804","NaN","387.869","0.065","NaN","0","252",NA
"434","R_3p4lCKY6Edm6tWY","standard","2","350","LP","0.264713485566566","388.872","NaN","388.933","0.061","NaN","0","252",NA
"435","R_3p4lCKY6Edm6tWY","standard","2","351","LP","8.51632916846187","389.936","NaN","389.972","0.036","NaN","0","252",NA
"436","R_3p4lCKY6Edm6tWY","standard","2","352","LP","13.0392072382594","390.987","NaN","391.013","0.026","NaN","0","252",NA
"437","R_3p4lCKY6Edm6tWY","standard","2","353","LP","13.0392072382594","392.014","NaN","392.117","0.103","NaN","0","252",NA
"438","R_3p4lCKY6Edm6tWY","standard","2","354","LP","0.661783713916415","393.118","NaN","393.253","0.135","NaN","0","252",NA
"439","R_3p4lCKY6Edm6tWY","standard","2","355","LP","5.5010771219302","394.256","NaN","394.469","0.213","NaN","0","252",NA
"440","R_3p4lCKY6Edm6tWY","standard","2","356","LP","1.25738905644119","395.487","NaN","395.534","0.047","NaN","0","252",NA
"441","R_3p4lCKY6Edm6tWY","standard","2","357","LP","30","396.543","NaN","396.638","0.095","NaN","0","252",NA
"442","R_3p4lCKY6Edm6tWY","standard","2","358","LP","8.51632916846187","397.647","NaN","397.836","0.189","NaN","0","252",NA
"443","R_3p4lCKY6Edm6tWY","standard","2","359","LP","0.264713485566566","398.84","NaN","398.997","0.157","NaN","0","252",NA
"444","R_3p4lCKY6Edm6tWY","standard","2","360","LP","5.5010771219302","400.001","NaN","400.141","0.14","NaN","0","252",NA
"445","R_3p4lCKY6Edm6tWY","standard","2","361","LP","13.0392072382594","401.151","NaN","401.365","0.214","NaN","0","252",NA
"446","R_3p4lCKY6Edm6tWY","standard","2","362","LP","5.5010771219302","402.382","NaN","402.389","0.007","NaN","0","252",NA
"447","R_3p4lCKY6Edm6tWY","standard","2","363","LP","2.15079707022835","403.389","NaN","403.629","0.24","NaN","0","252",NA
"448","R_3p4lCKY6Edm6tWY","standard","2","364","LP","30","404.633","NaN","404.7","0.067","NaN","0","252",NA
"449","R_3p4lCKY6Edm6tWY","standard","2","365","LP","19.8235243429556","405.709","NaN","405.837","0.128","NaN","0","252",NA
"450","R_3p4lCKY6Edm6tWY","standard","2","366","LP","30","406.846","NaN","406.925","0.079","NaN","0","252",NA
"451","R_3p4lCKY6Edm6tWY","standard","2","367","LP","0.264713485566566","407.935","NaN","408.205","0.27","NaN","0","252",NA
"452","R_3p4lCKY6Edm6tWY","standard","2","368","LP","13.0392072382594","409.215","NaN","409.477","0.262","NaN","0","252",NA
"453","R_3p4lCKY6Edm6tWY","standard","2","369","LP","3.49090909090909","410.496","NaN","410.628","0.132","NaN","0","252",NA
"454","R_3p4lCKY6Edm6tWY","standard","2","370","LP","30","411.633","NaN","411.909","0.276","NaN","0","252",NA
"455","R_3p4lCKY6Edm6tWY","standard","2","371","LP","0.661783713916415","412.911","NaN","413.029","0.118","NaN","0","252",NA
"456","R_3p4lCKY6Edm6tWY","standard","2","372","LP","1.25738905644119","414.034","NaN","414.261","0.227","NaN","0","252",NA
"457","R_3p4lCKY6Edm6tWY","standard","2","373","LP","30","415.279","NaN","415.356","0.077","NaN","0","252",NA
"458","R_3p4lCKY6Edm6tWY","standard","2","374","LP","5.5010771219302","416.367","NaN","416.429","0.062","NaN","0","252",NA
"459","R_3p4lCKY6Edm6tWY","standard","2","375","LP","2.15079707022835","417.433","NaN","417.573","0.14","NaN","0","252",NA
"460","R_3p4lCKY6Edm6tWY","standard","2","376","LP","19.8235243429556","418.59","NaN","418.605","0.015","NaN","0","252",NA
"461","R_3p4lCKY6Edm6tWY","standard","2","377","LP","19.8235243429556","419.616","NaN","419.629","0.013","NaN","0","252",NA
"462","R_3p4lCKY6Edm6tWY","standard","2","378","LP","19.8235243429556","420.633","NaN","420.708","0.075","NaN","0","252",NA
"463","R_3p4lCKY6Edm6tWY","standard","2","379","LP","2.15079707022835","421.711","NaN","421.789","0.078","NaN","0","252",NA
"464","R_3p4lCKY6Edm6tWY","standard","2","380","LP","13.0392072382594","422.798","NaN","422.973","0.175","NaN","0","252",NA
"465","R_3p4lCKY6Edm6tWY","standard","2","381","LP","5.5010771219302","423.981","NaN","424.109","0.128","NaN","0","252",NA
"466","R_3p4lCKY6Edm6tWY","standard","2","382","LP","3.49090909090909","425.118","NaN","425.229","0.111","NaN","0","252",NA
"467","R_3p4lCKY6Edm6tWY","standard","2","383","LP","0.264713485566566","426.234","NaN","426.42","0.186","NaN","0","252",NA
"468","R_3p4lCKY6Edm6tWY","standard","2","384","LP","30","427.421","NaN","427.557","0.136","NaN","0","252",NA
"469","R_3p4lCKY6Edm6tWY","standard","2","385","LP","0.661783713916415","428.571","NaN","428.718","0.147","NaN","0","252",NA
"470","R_3p4lCKY6Edm6tWY","standard","2","386","LP","30","429.722","NaN","429.852","0.13","NaN","0","252",NA
"471","R_3p4lCKY6Edm6tWY","standard","2","387","LP","19.8235243429556","430.872","NaN","431.029","0.157","NaN","0","252",NA
"472","R_3p4lCKY6Edm6tWY","standard","2","388","LP","8.51632916846187","432.04","NaN","432.18","0.14","NaN","0","252",NA
"473","R_3p4lCKY6Edm6tWY","standard","2","389","LP","5.5010771219302","433.188","NaN","433.301","0.113","NaN","0","252",NA
"474","R_3p4lCKY6Edm6tWY","standard","2","390","LP","3.49090909090909","434.312","NaN","434.469","0.157","NaN","0","252",NA
"475","R_3p4lCKY6Edm6tWY","standard","2","391","LP","1.25738905644119","435.48","NaN","435.62","0.14","NaN","0","252",NA
"476","R_3p4lCKY6Edm6tWY","standard","2","392","LP","0.264713485566566","436.631","NaN","436.772","0.141","NaN","0","252",NA
"477","R_3p4lCKY6Edm6tWY","standard","2","393","LP","13.0392072382594","437.783","NaN","437.861","0.078","NaN","0","252",NA
"478","R_3p4lCKY6Edm6tWY","standard","2","394","LP","30","438.871","NaN","438.941","0.07","NaN","0","252",NA
"479","R_3p4lCKY6Edm6tWY","standard","2","395","LP","8.51632916846187","439.959","NaN","440.157","0.198","NaN","0","252",NA
"480","R_3p4lCKY6Edm6tWY","standard","2","396","LP","1.25738905644119","441.176","NaN","441.317","0.141","NaN","0","252",NA
"481","R_3p4lCKY6Edm6tWY","standard","2","397","LP","30","442.329","NaN","442.485","0.156","NaN","0","252",NA
"482","R_3p4lCKY6Edm6tWY","standard","2","398","LP","2.15079707022835","443.498","NaN","443.501","0.003","NaN","0","252",NA
"483","R_3p4lCKY6Edm6tWY","standard","2","399","LP","19.8235243429556","444.509","NaN","444.581","0.072","NaN","0","252",NA
"484","R_3p4lCKY6Edm6tWY","standard","2","400","LP","13.0392072382594","445.589","NaN","445.693","0.104","NaN","0","252",NA
"485","R_3p4lCKY6Edm6tWY","standard","2","401","LP","8.51632916846187","446.698","NaN","446.821","0.123","NaN","0","252",NA
"486","R_3p4lCKY6Edm6tWY","standard","2","402","LP","0.264713485566566","447.833","NaN","448.037","0.204","NaN","0","252",NA
"487","R_3p4lCKY6Edm6tWY","standard","2","403","LP","13.0392072382594","449.044","NaN","449.181","0.137","NaN","0","252",NA
"488","R_3p4lCKY6Edm6tWY","standard","2","404","LP","2.15079707022835","450.187","NaN","450.237","0.05","NaN","0","252",NA
"489","R_3p4lCKY6Edm6tWY","standard","2","405","LP","13.0392072382594","451.244","NaN","451.333","0.089","NaN","0","252",NA
"490","R_3p4lCKY6Edm6tWY","standard","2","406","LP","0.264713485566566","452.349","NaN","452.485","0.136","NaN","0","252",NA
"491","R_3p4lCKY6Edm6tWY","standard","2","407","LP","30","453.502","NaN","453.629","0.127","NaN","0","252",NA
"492","R_3p4lCKY6Edm6tWY","standard","2","408","LP","30","454.632","NaN","454.757","0.125","NaN","0","252",NA
"493","R_3p4lCKY6Edm6tWY","standard","2","409","LP","8.51632916846187","455.76","NaN","455.829","0.069","NaN","0","252",NA
"494","R_3p4lCKY6Edm6tWY","standard","2","410","LP","30","456.843","NaN","456.893","0.05","NaN","0","252",NA
"495","R_3p4lCKY6Edm6tWY","standard","2","411","LP","2.15079707022835","457.899","NaN","458.028","0.129","NaN","0","252",NA
"496","R_3p4lCKY6Edm6tWY","standard","2","412","LP","2.15079707022835","459.032","NaN","459.109","0.077","NaN","0","252",NA
"497","R_3p4lCKY6Edm6tWY","standard","2","413","LP","19.8235243429556","460.116","NaN","460.213","0.097","NaN","0","252",NA
"498","R_3p4lCKY6Edm6tWY","standard","2","414","LP","3.49090909090909","461.216","NaN","461.3","0.084","NaN","0","252",NA
"499","R_3p4lCKY6Edm6tWY","standard","2","415","LP","30","462.31","NaN","462.516","0.206","NaN","0","252",NA
"500","R_3p4lCKY6Edm6tWY","standard","2","416","LP","30","463.517","NaN","463.645","0.128","NaN","0","252",NA
"501","R_3p4lCKY6Edm6tWY","standard","2","417","LP","0.661783713916415","464.648","NaN","464.757","0.109","NaN","0","252",NA
"502","R_3p4lCKY6Edm6tWY","standard","2","418","LP","0.264713485566566","465.774","NaN","465.788","0.014","NaN","0","252",NA
"503","R_3p4lCKY6Edm6tWY","standard","2","419","LP","2.15079707022835","466.795","NaN","466.885","0.09","NaN","0","252",NA
"504","R_3p4lCKY6Edm6tWY","standard","2","420","LP","13.0392072382594","467.9","NaN","468.061","0.161","NaN","0","252",NA
"505","R_3p4lCKY6Edm6tWY","standard","2","421","LP","2.15079707022835","469.064","NaN","469.253","0.189","NaN","0","252",NA
"506","R_3p4lCKY6Edm6tWY","standard","2","422","LP","30","470.271","NaN","470.357","0.086","NaN","0","252",NA
"507","R_3p4lCKY6Edm6tWY","standard","2","423","LP","13.0392072382594","471.375","NaN","471.421","0.046","NaN","0","252",NA
"508","R_3p4lCKY6Edm6tWY","standard","2","424","LP","30","472.429","NaN","472.525","0.096","NaN","0","252",NA
"509","R_3p4lCKY6Edm6tWY","standard","2","425","LP","2.15079707022835","473.535","NaN","473.589","0.054","NaN","0","252",NA
"510","R_3p4lCKY6Edm6tWY","standard","2","426","LP","0.661783713916415","474.607","NaN","474.812","0.205","NaN","0","252",NA
"511","R_3p4lCKY6Edm6tWY","standard","2","427","LP","8.51632916846187","475.816","NaN","475.925","0.109","NaN","0","252",NA
"512","R_3p4lCKY6Edm6tWY","standard","2","428","LP","3.49090909090909","476.944","NaN","476.981","0.037","NaN","0","252",NA
"513","R_3p4lCKY6Edm6tWY","standard","2","429","LP","1.25738905644119","478","NaN","478.021","0.021","NaN","0","252",NA
"514","R_3p4lCKY6Edm6tWY","standard","2","430","LP","0.264713485566566","479.024","NaN","479.239","0.215","NaN","0","252",NA
"515","R_3p4lCKY6Edm6tWY","standard","2","431","LP","2.15079707022835","480.254","NaN","480.381","0.127","NaN","0","252",NA
"516","R_3p4lCKY6Edm6tWY","standard","2","432","LP","0.264713485566566","481.385","NaN","481.501","0.116","NaN","0","252",NA
"517","R_3p4lCKY6Edm6tWY","standard","2","433","LP","0.661783713916415","482.511","NaN","482.677","0.166","NaN","0","252",NA
"518","R_3p4lCKY6Edm6tWY","standard","2","434","LP","19.8235243429556","483.696","NaN","483.733","0.037","NaN","0","252",NA
"519","R_3p4lCKY6Edm6tWY","standard","2","435","LP","3.49090909090909","484.751","NaN","484.813","0.062","NaN","0","252",NA
"520","R_3p4lCKY6Edm6tWY","standard","2","436","LP","8.51632916846187","485.823","NaN","485.885","0.062","NaN","0","252",NA
"521","R_3p4lCKY6Edm6tWY","standard","2","437","LP","3.49090909090909","486.895","NaN","486.981","0.086","NaN","0","252",NA
"522","R_3p4lCKY6Edm6tWY","standard","2","438","LP","8.51632916846187","488","NaN","488.085","0.085","NaN","0","252",NA
"523","R_3p4lCKY6Edm6tWY","standard","2","439","LP","13.0392072382594","489.101","NaN","489.133","0.032","NaN","0","252",NA
"524","R_3p4lCKY6Edm6tWY","standard","2","440","LP","2.15079707022835","490.142","NaN","490.157","0.015","NaN","0","252",NA
"525","R_3p4lCKY6Edm6tWY","standard","2","441","LP","8.51632916846187","491.167","NaN","491.237","0.07","NaN","0","252",NA
"526","R_3p4lCKY6Edm6tWY","standard","2","442","LP","19.8235243429556","492.255","NaN","492.349","0.094","NaN","0","252",NA
"527","R_3p4lCKY6Edm6tWY","standard","2","443","LP","13.0392072382594","493.36","NaN","493.501","0.141","NaN","0","252",NA
"528","R_3p4lCKY6Edm6tWY","standard","2","444","LP","13.0392072382594","494.513","NaN","494.516","0.003","NaN","0","252",NA
"529","R_3p4lCKY6Edm6tWY","standard","2","445","LP","19.8235243429556","495.519","NaN","495.549","0.03","NaN","0","252",NA
"530","R_3p4lCKY6Edm6tWY","standard","2","446","LP","2.15079707022835","496.559","NaN","496.622","0.063","NaN","0","252",NA
"531","R_3p4lCKY6Edm6tWY","standard","2","447","LP","1.25738905644119","497.631","NaN","497.701","0.07","NaN","0","252",NA
"532","R_3p4lCKY6Edm6tWY","standard","2","448","LP","0.661783713916415","498.705","NaN","498.716","0.011","NaN","0","252",NA
"533","R_3p4lCKY6Edm6tWY","standard","2","449","LP","1.25738905644119","499.726","NaN","499.853","0.127","NaN","0","252",NA
"534","R_3p4lCKY6Edm6tWY","standard","2","450","LP","19.8235243429556","500.856","NaN","501.044","0.188","NaN","0","252",NA
"535","R_3p4lCKY6Edm6tWY","standard","2","451","LP","13.0392072382594","502.048","NaN","502.077","0.029","NaN","0","252",NA
"536","R_3p4lCKY6Edm6tWY","standard","2","452","LP","30","503.086","NaN","503.253","0.167","NaN","0","252",NA
"537","R_3p4lCKY6Edm6tWY","standard","2","453","LP","13.0392072382594","504.271","NaN","504.405","0.134","NaN","0","252",NA
"538","R_3p4lCKY6Edm6tWY","standard","2","454","LP","30","505.422","NaN","505.597","0.175","NaN","0","252",NA
"539","R_3p4lCKY6Edm6tWY","standard","2","455","LP","0.661783713916415","506.605","NaN","506.789","0.184","NaN","0","252",NA
"540","R_3p4lCKY6Edm6tWY","standard","2","456","LP","3.49090909090909","507.793","NaN","507.829","0.036","NaN","0","252",NA
"541","R_3p4lCKY6Edm6tWY","standard","2","457","LP","30","508.832","NaN","508.957","0.125","NaN","0","252",NA
"542","R_3p4lCKY6Edm6tWY","standard","2","458","LP","1.25738905644119","509.969","NaN","510.029","0.06","NaN","0","252",NA
"543","R_3p4lCKY6Edm6tWY","standard","2","459","LP","1.25738905644119","511.033","NaN","511.085","0.052","NaN","0","252",NA
"544","R_3p4lCKY6Edm6tWY","standard","2","460","LP","8.51632916846187","512.095","NaN","512.141","0.046","NaN","0","252",NA
"545","R_3p4lCKY6Edm6tWY","standard","2","461","LP","3.49090909090909","513.15","NaN","513.637","0.487","NaN","0","252",NA
"546","R_3p4lCKY6Edm6tWY","standard","2","462","LP","0.661783713916415","514.641","NaN","514.837","0.196","NaN","0","252",NA
"547","R_3p4lCKY6Edm6tWY","standard","2","463","LP","2.15079707022835","515.851","NaN","515.933","0.082","NaN","0","252",NA
"548","R_3p4lCKY6Edm6tWY","standard","2","464","LP","19.8235243429556","516.94","NaN","516.997","0.057","NaN","0","252",NA
"549","R_3p4lCKY6Edm6tWY","standard","2","465","LP","5.5010771219302","518.01","NaN","518.133","0.123","NaN","0","252",NA
"550","R_3p4lCKY6Edm6tWY","standard","2","466","LP","19.8235243429556","519.146","NaN","519.245","0.099","NaN","0","252",NA
"551","R_3p4lCKY6Edm6tWY","standard","2","467","LP","0.661783713916415","520.249","NaN","520.389","0.14","NaN","0","252",NA
"552","R_3p4lCKY6Edm6tWY","standard","2","468","LP","2.15079707022835","521.393","NaN","521.453","0.06","NaN","0","252",NA
"553","R_3p4lCKY6Edm6tWY","standard","2","469","LP","13.0392072382594","522.469","NaN","522.485","0.016","NaN","0","252",NA
"554","R_3p4lCKY6Edm6tWY","standard","2","470","LP","3.49090909090909","523.491","NaN","523.526","0.035","NaN","0","252",NA
"555","R_3p4lCKY6Edm6tWY","standard","2","471","LP","2.15079707022835","524.532","NaN","524.701","0.169","NaN","0","252",NA
"556","R_3p4lCKY6Edm6tWY","standard","2","472","LP","3.49090909090909","525.715","NaN","525.804","0.089","NaN","0","252",NA
"557","R_3p4lCKY6Edm6tWY","standard","2","473","LP","30","526.82","NaN","526.901","0.081","NaN","0","252",NA
"558","R_3p4lCKY6Edm6tWY","standard","2","474","LP","3.49090909090909","527.908","NaN","527.917","0.009","NaN","0","252",NA
"559","R_3p4lCKY6Edm6tWY","standard","2","475","LP","3.49090909090909","528.917","NaN","529.013","0.096","NaN","0","252",NA
"560","R_3p4lCKY6Edm6tWY","standard","2","476","LP","19.8235243429556","530.021","NaN","530.085","0.064","NaN","0","252",NA
"561","R_3p4lCKY6Edm6tWY","standard","2","477","LP","30","531.093","NaN","531.197","0.104","NaN","0","252",NA
"562","R_3p4lCKY6Edm6tWY","standard","2","478","LP","13.0392072382594","532.214","NaN","532.269","0.055","NaN","0","252",NA
"563","R_3p4lCKY6Edm6tWY","standard","2","479","LP","3.49090909090909","533.277","NaN","533.5","0.223","NaN","0","252",NA
"564","R_3p4lCKY6Edm6tWY","standard","2","480","LP","19.8235243429556","534.521","NaN","534.556","0.035","NaN","0","252",NA
"565","R_3p4lCKY6Edm6tWY","standard","2","481","LP","13.0392072382594","535.574","NaN","535.741","0.167","NaN","0","252",NA
"566","R_3p4lCKY6Edm6tWY","standard","2","482","LP","3.49090909090909","536.759","NaN","536.933","0.174","NaN","0","252",NA
"567","R_3p4lCKY6Edm6tWY","standard","2","483","LP","0.264713485566566","537.943","NaN","537.949","0.006","NaN","0","252",NA
"568","R_3p4lCKY6Edm6tWY","standard","2","484","LP","1.25738905644119","538.967","NaN","539.197","0.23","NaN","0","252",NA
"569","R_3p4lCKY6Edm6tWY","standard","2","485","LP","13.0392072382594","540.214","NaN","540.253","0.039","NaN","0","252",NA
"570","R_3p4lCKY6Edm6tWY","standard","2","486","LP","3.49090909090909","541.27","NaN","541.356","0.086","NaN","0","252",NA
"571","R_3p4lCKY6Edm6tWY","standard","2","487","LP","2.15079707022835","542.373","NaN","542.493","0.12","NaN","0","252",NA
"572","R_3p4lCKY6Edm6tWY","standard","2","488","LP","0.661783713916415","543.509","NaN","543.605","0.096","NaN","0","252",NA
"573","R_3p4lCKY6Edm6tWY","standard","2","489","LP","8.51632916846187","544.616","NaN","544.789","0.173","NaN","0","252",NA
"574","R_3p4lCKY6Edm6tWY","standard","2","490","LP","30","545.794","NaN","545.965","0.171","NaN","0","252",NA
"575","R_3p4lCKY6Edm6tWY","standard","2","491","LP","8.51632916846187","546.973","NaN","547.069","0.096","NaN","0","252",NA
"576","R_3p4lCKY6Edm6tWY","standard","2","492","LP","0.264713485566566","548.077","NaN","548.189","0.112","NaN","0","252",NA
"577","R_3p4lCKY6Edm6tWY","standard","2","493","LP","30","549.202","NaN","549.365","0.163","NaN","0","252",NA
"578","R_3p4lCKY6Edm6tWY","standard","2","494","LP","13.0392072382594","550.383","NaN","550.501","0.118","NaN","0","252",NA
"579","R_3p4lCKY6Edm6tWY","standard","2","495","LP","1.25738905644119","551.506","NaN","551.557","0.051","NaN","0","252",NA
"580","R_3p4lCKY6Edm6tWY","standard","2","496","LP","0.264713485566566","552.56","NaN","552.597","0.037","NaN","0","252",NA
"581","R_3p4lCKY6Edm6tWY","standard","2","497","LP","5.5010771219302","553.601","NaN","553.653","0.052","NaN","0","252",NA
"582","R_3p4lCKY6Edm6tWY","standard","2","498","LP","1.25738905644119","554.669","NaN","554.868","0.199","NaN","0","252",NA
"583","R_3p4lCKY6Edm6tWY","standard","2","499","LP","0.264713485566566","555.886","NaN","556.046","0.16","NaN","0","252",NA
"584","R_3p4lCKY6Edm6tWY","standard","2","500","LP","13.0392072382594","557.055","NaN","557.069","0.014","NaN","0","252",NA
"585","R_3p4lCKY6Edm6tWY","standard","2","501","LP","2.15079707022835","558.079","NaN","558.141","0.062","NaN","0","252",NA
"586","R_3p4lCKY6Edm6tWY","standard","2","502","LP",NA,"559.144","559.146","559.253","0.109","0.107","3","255",NA
"587","R_3p4lCKY6Edm6tWY","standard","2","503","LP",NA,"560.256","560.257","560.349","0.093","0.092","3","258",NA
"588","R_3p4lCKY6Edm6tWY","standard","2","504","LP",NA,"561.352","561.353","561.493","0.141","0.14","3","261",NA
"589","R_3p4lCKY6Edm6tWY","standard","2","505","LP",NA,"562.508","562.509","562.661","0.153","0.152","3","264",NA
"590","R_3p4lCKY6Edm6tWY","standard","2","506","LP",NA,"563.676","563.676","563.821","0.145","0.145","3","267",NA
"591","R_3p4lCKY6Edm6tWY","standard","2","507","LP",NA,"564.828","564.83","564.909","0.081","0.079","3","270",NA
"592","R_3p4lCKY6Edm6tWY","standard","2","508","LP",NA,"565.915","565.916","566.101","0.186","0.185","3","273",NA
"593","R_3p4lCKY6Edm6tWY","standard","2","509","LP",NA,"567.112","567.113","567.213","0.101","0.1","3","276",NA
"594","R_3p4lCKY6Edm6tWY","standard","2","510","LP",NA,"568.216","568.217","568.341","0.125","0.124","3","279",NA
"595","R_3p4lCKY6Edm6tWY","standard","2","511","LP",NA,"569.345","569.348","569.533","0.188","0.185","3","282",NA
"596","R_3p4lCKY6Edm6tWY","standard","2","512","LP",NA,"570.55","570.55","570.781","0.231","0.231","3","285",NA
"597","R_3p4lCKY6Edm6tWY","standard","2","513","LP",NA,"571.797","571.798","571.813","0.016","0.015","3","288",NA
"598","R_3p4lCKY6Edm6tWY","standard","2","514","LP",NA,"572.821","572.822","572.933","0.112","0.111","3","291",NA
"599","R_3p4lCKY6Edm6tWY","standard","2","515","LP",NA,"573.94","573.94","574.109","0.169","0.169","3","294",NA
"600","R_3p4lCKY6Edm6tWY","standard","2","516","LP",NA,"575.115","575.116",NA,"1.015",NA,"0","294",NA
"601","R_3p4lCKY6Edm6tWY","standard","2","517","LP",NA,"577.138","577.143",NA,"1.008",NA,"0","294",NA
"602","R_3p4lCKY6Edm6tWY","standard","2","518","LP",NA,"579.168","579.173",NA,"1.023",NA,"0","294",NA
"603","R_3p4lCKY6Edm6tWY","standard","2","519","LP",NA,"581.197","581.201",NA,"1.024",NA,"0","294",NA
"604","R_3p4lCKY6Edm6tWY","standard","2","520","LP",NA,"583.227","583.232",NA,"1.024",NA,"0","294",NA
"605","R_3p4lCKY6Edm6tWY","standard","2","521","LP",NA,"585.26","585.265",NA,"1.025",NA,"0","294",NA
"606","R_3p4lCKY6Edm6tWY","standard","2","522","LP",NA,"587.294","587.299",NA,"1.024",NA,"0","294",NA
"607","R_3p4lCKY6Edm6tWY","standard","2","523","LP",NA,"589.327","589.332",NA,"1.025",NA,"0","294",NA
"608","R_3p4lCKY6Edm6tWY","standard","2","524","LP",NA,"591.353","591.358",NA,"1.017",NA,"0","294",NA
"609","R_3p4lCKY6Edm6tWY","standard","2","525","LP",NA,"593.378","593.383",NA,"1.022",NA,"0","294",NA
"610","R_3p4lCKY6Edm6tWY","standard","2","526","LP",NA,"595.409","595.414",NA,"1.01",NA,"0","294",NA
"611","R_3p4lCKY6Edm6tWY","standard","2","527","LP","8.51632916846187","597.426","597.431",NA,"1.007",NA,"0","294",NA
