"","subject_id","condition","n_block","n_trialIdx","f_timing_condition","n_scheduled_delay","n_trial_start_time","n_rewarded_time_fin","n_sell_time_fin","n_time_waited_fin","RT_fin","n_trial_earnings_fin","n_total_earnings_fin","keypress_times"
"1","R_3RvJhcf0GInSph2","standard","1","1","HP","8","0.001","8.006","8.281","8.28","0.275","3","3",""
"2","R_3RvJhcf0GInSph2","standard","1","2","HP","12","9.284","21.288","21.537","12.253","0.249","3","6",""
"3","R_3RvJhcf0GInSph2","standard","1","3","HP","16","22.541","38.544","38.818","16.277","0.274","3","9",""
"4","R_3RvJhcf0GInSph2","standard","1","4","HP","6","39.82","45.824","46.199","6.379","0.375","3","12",""
"5","R_3RvJhcf0GInSph2","standard","1","5","HP","20","47.201","67.205","67.481","20.28","0.276","3","15",""
"6","R_3RvJhcf0GInSph2","standard","1","6","HP","6","68.484","74.488","74.775","6.291","0.287","3","18",""
"7","R_3RvJhcf0GInSph2","standard","1","7","HP","10","75.776","85.78","86.024","10.248","0.244","3","21",""
"8","R_3RvJhcf0GInSph2","standard","1","8","HP","2","87.029","89.031","89.422","2.393","0.391","3","24",""
"9","R_3RvJhcf0GInSph2","standard","1","9","HP","14","90.425","104.429","104.712","14.287","0.283","3","27",""
"10","R_3RvJhcf0GInSph2","standard","1","10","HP","12","105.713","117.715","117.992","12.279","0.277","3","30",""
"11","R_3RvJhcf0GInSph2","standard","1","11","HP","20","118.993","138.996","139.24","20.247","0.244","3","33",""
"12","R_3RvJhcf0GInSph2","standard","1","12","HP","14","140.24","154.243","154.776","14.536","0.533","3","36",""
"13","R_3RvJhcf0GInSph2","standard","1","13","HP","8","155.78","163.783","164.046","8.266","0.263","3","39",""
"14","R_3RvJhcf0GInSph2","standard","1","14","HP","18","165.048","183.048","183.287","18.239","0.239","3","42",""
"15","R_3RvJhcf0GInSph2","standard","1","15","HP","18","184.287","202.287","202.575","18.288","0.288","3","45",""
"16","R_3RvJhcf0GInSph2","standard","1","16","HP","8","203.579","211.584","211.973","8.394","0.389","3","48",""
"17","R_3RvJhcf0GInSph2","standard","1","17","HP","4","212.976","216.979","217.294","4.318","0.315","3","51",""
"18","R_3RvJhcf0GInSph2","standard","1","18","HP","14","218.296","232.299","232.709","14.413","0.41","3","54",""
"19","R_3RvJhcf0GInSph2","standard","1","19","HP","20","233.711","253.715","253.999","20.288","0.284","3","57",""
"20","R_3RvJhcf0GInSph2","standard","1","20","HP","12","255.004","267.012","267.326","12.322","0.314","3","60",""
"21","R_3RvJhcf0GInSph2","standard","1","21","HP","10","268.328","278.332","278.654","10.326","0.322","3","63",""
"22","R_3RvJhcf0GInSph2","standard","1","22","HP","12","279.656","291.66","291.941","12.285","0.281","3","66",""
"23","R_3RvJhcf0GInSph2","standard","1","23","HP","12","292.943","304.944","305.271","12.328","0.327","3","69",""
"24","R_3RvJhcf0GInSph2","standard","1","24","HP","14","306.272","320.275","320.575","14.303","0.3","3","72",""
"25","R_3RvJhcf0GInSph2","standard","1","25","HP","4","321.576","325.577","326.181","4.605","0.604","3","75",""
"26","R_3RvJhcf0GInSph2","standard","1","26","HP","18","327.185","345.189","345.478","18.293","0.289","3","78",""
"27","R_3RvJhcf0GInSph2","standard","1","27","HP","14","346.48","360.483","360.744","14.264","0.261","3","81",""
"28","R_3RvJhcf0GInSph2","standard","1","28","HP","18","361.748","379.751","380.061","18.313","0.31","3","84",""
"29","R_3RvJhcf0GInSph2","standard","1","29","HP","6","381.065","387.068","387.421","6.356","0.353","3","87",""
"30","R_3RvJhcf0GInSph2","standard","1","30","HP","4","388.424","392.428","392.806","4.382","0.378","3","90",""
"31","R_3RvJhcf0GInSph2","standard","1","31","HP","4","393.809","397.812","398.197","4.388","0.385","3","93",""
"32","R_3RvJhcf0GInSph2","standard","1","32","HP","10","399.2","409.204","409.517","10.317","0.313","3","96",""
"33","R_3RvJhcf0GInSph2","standard","1","33","HP","6","410.52","416.524","416.829","6.309","0.305","3","99",""
"34","R_3RvJhcf0GInSph2","standard","1","34","HP","2","417.832","419.835","420.141","2.309","0.306","3","102",""
"35","R_3RvJhcf0GInSph2","standard","1","35","HP","2","421.144","423.148","423.501","2.357","0.353","3","105",""
"36","R_3RvJhcf0GInSph2","standard","1","36","HP","4","424.504","428.511","428.844","4.34","0.333","3","108",""
"37","R_3RvJhcf0GInSph2","standard","1","37","HP","6","429.847","435.852","436.149","6.302","0.297","3","111",""
"38","R_3RvJhcf0GInSph2","standard","1","38","HP","2","437.151","439.155","439.436","2.285","0.281","3","114",""
"39","R_3RvJhcf0GInSph2","standard","1","39","HP","20","440.44","460.443","460.725","20.285","0.282","3","117",""
"40","R_3RvJhcf0GInSph2","standard","1","40","HP","14","461.728","475.73","476.084","14.356","0.354","3","120",""
"41","R_3RvJhcf0GInSph2","standard","1","41","HP","8","477.087","485.088","485.492","8.405","0.404","3","123",""
"42","R_3RvJhcf0GInSph2","standard","1","42","HP","18","486.495","504.499","504.781","18.286","0.282","3","126",""
"43","R_3RvJhcf0GInSph2","standard","1","43","HP","2","505.784","507.784","508.285","2.501","0.501","3","129",""
"44","R_3RvJhcf0GInSph2","standard","1","44","HP","2","509.287","511.292","511.539","2.252","0.247","3","132",""
"45","R_3RvJhcf0GInSph2","standard","1","45","HP","2","512.544","514.547","515.061","2.517","0.514","3","135",""
"46","R_3RvJhcf0GInSph2","standard","1","46","HP","8","516.064","524.067","524.355","8.291","0.288","3","138",""
"47","R_3RvJhcf0GInSph2","standard","1","47","HP","18","525.356","543.359","543.669","18.313","0.31","3","141",""
"48","R_3RvJhcf0GInSph2","standard","1","48","HP","8","544.672","552.675","552.98","8.308","0.305","3","144",""
"49","R_3RvJhcf0GInSph2","standard","1","49","HP","8","553.983","561.988","562.268","8.285","0.28","3","147",""
"50","R_3RvJhcf0GInSph2","standard","1","50","HP","12","563.271","575.273","575.541","12.27","0.268","3","150",""
"51","R_3RvJhcf0GInSph2","standard","1","51","HP","16","576.544","592.548","592.828","16.284","0.28","3","153",""
"52","R_3RvJhcf0GInSph2","standard","1","52","HP","20","593.829","613.833","614.092","20.263","0.259","3","156",""
"53","R_3RvJhcf0GInSph2","standard","1","53","HP","2","615.096","617.099","617.443","2.347","0.344","3","159",""
"54","R_3RvJhcf0GInSph2","standard","1","54","HP","6","618.448","624.451","624.756","6.308","0.305","3","162",""
"55","R_3RvJhcf0GInSph2","standard","1","55","HP","4","625.759","629.763","630.083","4.324","0.32","3","165",""
"56","R_3RvJhcf0GInSph2","standard","1","56","HP","14","631.089","645.092","645.348","14.259","0.256","3","168",""
"57","R_3RvJhcf0GInSph2","standard","1","57","HP","16","646.351","662.352","662.612","16.261","0.26","3","171",""
"58","R_3RvJhcf0GInSph2","standard","1","58","HP","12","663.617","675.619","675.893","12.276","0.274","3","174",""
"59","R_3RvJhcf0GInSph2","standard","1","59","HP","6","676.896","682.899","683.186","6.29","0.287","3","177",""
"60","R_3RvJhcf0GInSph2","standard","1","60","HP","10","684.188","694.192","694.58","10.392","0.388","3","180",""
"61","R_3RvJhcf0GInSph2","standard","1","61","HP","4","695.584","699.587","699.915","4.331","0.328","3","183",""
"62","R_3RvJhcf0GInSph2","standard","1","62","HP","4","700.92","704.924","705.268","4.348","0.344","3","186",""
"63","R_3RvJhcf0GInSph2","standard","1","63","HP","16","706.271","722.272","722.692","16.421","0.42","3","189",""
"64","R_3RvJhcf0GInSph2","standard","1","64","HP","10","723.696","733.7","734.082","10.386","0.382","3","192",""
"65","R_3RvJhcf0GInSph2","standard","1","65","HP","14","735.084","749.087","749.362","14.278","0.275","3","195",""
"66","R_3RvJhcf0GInSph2","standard","1","66","HP","18","750.363","768.367","768.651","18.288","0.284","3","198",""
"67","R_3RvJhcf0GInSph2","standard","1","67","HP","18","769.656","787.66","787.939","18.283","0.279","3","201",""
"68","R_3RvJhcf0GInSph2","standard","1","68","HP","16","788.94","804.943","805.235","16.295","0.292","3","204",""
"69","R_3RvJhcf0GInSph2","standard","1","69","HP","2","806.24","808.244","808.986","2.746","0.742","3","207",""
"70","R_3RvJhcf0GInSph2","standard","1","70","HP","16","809.989","825.992","826.323","16.334","0.331","3","210",""
"71","R_3RvJhcf0GInSph2","standard","1","71","HP","12","827.324","839.328","839.581","12.257","0.253","3","213",""
"72","R_3RvJhcf0GInSph2","standard","1","72","HP","4","840.583","844.588","844.866","4.283","0.278","3","216",""
"73","R_3RvJhcf0GInSph2","standard","1","73","HP","8","845.868","853.868","854.131","8.263","0.263","3","219",""
"74","R_3RvJhcf0GInSph2","standard","1","74","HP","18","855.132","873.135","873.386","18.254","0.251","3","222",""
"75","R_3RvJhcf0GInSph2","standard","1","75","HP","12","874.387","886.389","886.682","12.295","0.293","3","225",""
"76","R_3RvJhcf0GInSph2","standard","1","76","HP","2","887.685","889.688","890.274","2.589","0.586","3","228",""
"77","R_3RvJhcf0GInSph2","standard","2","1","LP","0.264713485566566","0","0.265","0.723","0.723","0.458","3","231",NA
"78","R_3RvJhcf0GInSph2","standard","2","2","LP","0.661783713916415","1.725","NaN","1.986","0.261","NaN","0","231",NA
"79","R_3RvJhcf0GInSph2","standard","2","3","LP","0.264713485566566","2.989","3.256","3.571","0.582","0.315","3","234",NA
"80","R_3RvJhcf0GInSph2","standard","2","4","LP","0.661783713916415","4.572","NaN","4.801","0.229","NaN","0","234",NA
"81","R_3RvJhcf0GInSph2","standard","2","5","LP","19.8235243429556","5.805","NaN","6.162","0.357","NaN","0","234",NA
"82","R_3RvJhcf0GInSph2","standard","2","6","LP","0.661783713916415","7.165","7.829","8.121","0.956","0.292","3","237",NA
"83","R_3RvJhcf0GInSph2","standard","2","7","LP","0.264713485566566","9.125","9.392","9.571","0.446","0.179","3","240",NA
"84","R_3RvJhcf0GInSph2","standard","2","8","LP","2.15079707022835","10.573","NaN","10.795","0.222","NaN","0","240",NA
"85","R_3RvJhcf0GInSph2","standard","2","9","LP","8.51632916846187","11.797","NaN","14.162","2.365","NaN","0","240",NA
"86","R_3RvJhcf0GInSph2","standard","2","10","LP","0.264713485566566","15.164","15.429","15.754","0.59","0.325","3","243",NA
"87","R_3RvJhcf0GInSph2","standard","2","11","LP","8.51632916846187","16.757","NaN","16.994","0.237","NaN","0","243",NA
"88","R_3RvJhcf0GInSph2","standard","2","12","LP","0.661783713916415","17.996","NaN","18.621","0.625","NaN","0","243",NA
"89","R_3RvJhcf0GInSph2","standard","2","13","LP","2.15079707022835","19.625","21.776","22.027","2.402","0.251","3","246",NA
"90","R_3RvJhcf0GInSph2","standard","2","14","LP","0.264713485566566","23.03","23.297","23.626","0.596","0.329","3","249",NA
"91","R_3RvJhcf0GInSph2","standard","2","15","LP","1.25738905644119","24.63","NaN","25.61","0.98","NaN","0","249",NA
"92","R_3RvJhcf0GInSph2","standard","2","16","LP","0.661783713916415","26.614","NaN","27.17","0.556","NaN","0","249",NA
"93","R_3RvJhcf0GInSph2","standard","2","17","LP","13.0392072382594","28.174","NaN","30.682","2.508","NaN","0","249",NA
"94","R_3RvJhcf0GInSph2","standard","2","18","LP","1.25738905644119","31.685","NaN","32.787","1.102","NaN","0","249",NA
"95","R_3RvJhcf0GInSph2","standard","2","19","LP","19.8235243429556","33.79","NaN","34.658","0.868","NaN","0","249",NA
"96","R_3RvJhcf0GInSph2","standard","2","20","LP","0.264713485566566","35.661","35.93","36.274","0.613","0.344","3","252",NA
"97","R_3RvJhcf0GInSph2","standard","2","21","LP","30","37.276","NaN","37.513","0.237","NaN","0","252",NA
"98","R_3RvJhcf0GInSph2","standard","2","22","LP","3.49090909090909","38.517","NaN","41.474","2.957","NaN","0","252",NA
"99","R_3RvJhcf0GInSph2","standard","2","23","LP","30","42.477","NaN","45.226","2.749","NaN","0","252",NA
"100","R_3RvJhcf0GInSph2","standard","2","24","LP","0.264713485566566","46.229","46.498","46.841","0.612","0.343","3","255",NA
"101","R_3RvJhcf0GInSph2","standard","2","25","LP","2.15079707022835","47.845","NaN","49.849","2.004","NaN","0","255",NA
"102","R_3RvJhcf0GInSph2","standard","2","26","LP","0.264713485566566","50.852","51.118","51.419","0.567","0.301","3","258",NA
"103","R_3RvJhcf0GInSph2","standard","2","27","LP","1.25738905644119","52.421","NaN","53.217","0.796","NaN","0","258",NA
"104","R_3RvJhcf0GInSph2","standard","2","28","LP","30","54.218","NaN","57.373","3.155","NaN","0","258",NA
"105","R_3RvJhcf0GInSph2","standard","2","29","LP","3.49090909090909","58.373","NaN","61.37","2.997","NaN","0","258",NA
"106","R_3RvJhcf0GInSph2","standard","2","30","LP","1.25738905644119","62.373","63.634","63.953","1.58","0.319","3","261",NA
"107","R_3RvJhcf0GInSph2","standard","2","31","LP","0.264713485566566","64.958","65.225","65.57","0.612","0.345","3","264",NA
"108","R_3RvJhcf0GInSph2","standard","2","32","LP","13.0392072382594","66.574","NaN","67.065","0.491","NaN","0","264",NA
"109","R_3RvJhcf0GInSph2","standard","2","33","LP","0.661783713916415","68.069","68.732","69.066","0.997","0.334","3","267",NA
"110","R_3RvJhcf0GInSph2","standard","2","34","LP","5.5010771219302","70.069","NaN","70.898","0.829","NaN","0","267",NA
"111","R_3RvJhcf0GInSph2","standard","2","35","LP","19.8235243429556","71.901","NaN","74.25","2.349","NaN","0","267",NA
"112","R_3RvJhcf0GInSph2","standard","2","36","LP","5.5010771219302","75.253","NaN","77.13","1.877","NaN","0","267",NA
"113","R_3RvJhcf0GInSph2","standard","2","37","LP","5.5010771219302","78.134","NaN","81.035","2.901","NaN","0","267",NA
"114","R_3RvJhcf0GInSph2","standard","2","38","LP","0.661783713916415","82.038","82.701","82.954","0.916","0.253","3","270",NA
"115","R_3RvJhcf0GInSph2","standard","2","39","LP","8.51632916846187","83.957","NaN","86.721","2.764","NaN","0","270",NA
"116","R_3RvJhcf0GInSph2","standard","2","40","LP","2.15079707022835","87.725","NaN","88.209","0.484","NaN","0","270",NA
"117","R_3RvJhcf0GInSph2","standard","2","41","LP","2.15079707022835","89.213","91.365","91.667","2.454","0.302","3","273",NA
"118","R_3RvJhcf0GInSph2","standard","2","42","LP","30","92.669","NaN","96.386","3.717","NaN","0","273",NA
"119","R_3RvJhcf0GInSph2","standard","2","43","LP","19.8235243429556","97.389","NaN","100.69","3.301","NaN","0","273",NA
"120","R_3RvJhcf0GInSph2","standard","2","44","LP","1.25738905644119","101.693","102.953","103.299","1.606","0.346","3","276",NA
"121","R_3RvJhcf0GInSph2","standard","2","45","LP","0.264713485566566","104.301","104.569","104.898","0.597","0.329","3","279",NA
"122","R_3RvJhcf0GInSph2","standard","2","46","LP","30","105.901","NaN","106.665","0.764","NaN","0","279",NA
"123","R_3RvJhcf0GInSph2","standard","2","47","LP","1.25738905644119","107.666","108.925","109.241","1.575","0.316","3","282",NA
"124","R_3RvJhcf0GInSph2","standard","2","48","LP","8.51632916846187","110.242","NaN","114.826","4.584","NaN","0","282",NA
"125","R_3RvJhcf0GInSph2","standard","2","49","LP","3.49090909090909","115.828","119.321","119.394","3.566","0.073","3","285",NA
"126","R_3RvJhcf0GInSph2","standard","2","50","LP","5.5010771219302","120.397","NaN","124.909","4.512","NaN","0","285",NA
"127","R_3RvJhcf0GInSph2","standard","2","51","LP","0.661783713916415","125.912","126.578","126.929","1.017","0.351","3","288",NA
"128","R_3RvJhcf0GInSph2","standard","2","52","LP","19.8235243429556","127.929","NaN","130.969","3.04","NaN","0","288",NA
"129","R_3RvJhcf0GInSph2","standard","2","53","LP","19.8235243429556","131.974","NaN","135.067","3.093","NaN","0","288",NA
"130","R_3RvJhcf0GInSph2","standard","2","54","LP","13.0392072382594","136.07","NaN","140.817","4.747","NaN","0","288",NA
"131","R_3RvJhcf0GInSph2","standard","2","55","LP","0.264713485566566","141.82","142.085","142.402","0.582","0.317","3","291",NA
"132","R_3RvJhcf0GInSph2","standard","2","56","LP","3.49090909090909","143.404","146.896","147.169","3.765","0.273","3","294",NA
"133","R_3RvJhcf0GInSph2","standard","2","57","LP","3.49090909090909","148.173","151.665","152.225","4.052","0.56","3","297",NA
"134","R_3RvJhcf0GInSph2","standard","2","58","LP","19.8235243429556","153.225","NaN","158.513","5.288","NaN","0","297",NA
"135","R_3RvJhcf0GInSph2","standard","2","59","LP","5.5010771219302","159.516","NaN","163.288","3.772","NaN","0","297",NA
"136","R_3RvJhcf0GInSph2","standard","2","60","LP","30","164.289","NaN","168.248","3.959","NaN","0","297",NA
"137","R_3RvJhcf0GInSph2","standard","2","61","LP","3.49090909090909","169.252","172.744","173.043","3.791","0.299","3","300",NA
"138","R_3RvJhcf0GInSph2","standard","2","62","LP","1.25738905644119","174.044","175.309","175.625","1.581","0.316","3","303",NA
"139","R_3RvJhcf0GInSph2","standard","2","63","LP","13.0392072382594","176.628","NaN","180.656","4.028","NaN","0","303",NA
"140","R_3RvJhcf0GInSph2","standard","2","64","LP","0.661783713916415","181.66","182.324","182.64","0.98","0.316","3","306",NA
"141","R_3RvJhcf0GInSph2","standard","2","65","LP","3.49090909090909","183.641","NaN","186.09","2.449","NaN","0","306",NA
"142","R_3RvJhcf0GInSph2","standard","2","66","LP","2.15079707022835","187.092","189.244","189.504","2.412","0.26","3","309",NA
"143","R_3RvJhcf0GInSph2","standard","2","67","LP","8.51632916846187","190.509","NaN","194.705","4.196","NaN","0","309",NA
"144","R_3RvJhcf0GInSph2","standard","2","68","LP","1.25738905644119","195.712","196.973","197.322","1.61","0.349","3","312",NA
"145","R_3RvJhcf0GInSph2","standard","2","69","LP","2.15079707022835","198.325","200.476","200.785","2.46","0.309","3","315",NA
"146","R_3RvJhcf0GInSph2","standard","2","70","LP","13.0392072382594","201.788","NaN","206.496","4.708","NaN","0","315",NA
"147","R_3RvJhcf0GInSph2","standard","2","71","LP","0.264713485566566","207.497","207.765","208.137","0.64","0.372","3","318",NA
"148","R_3RvJhcf0GInSph2","standard","2","72","LP","8.51632916846187","209.14","NaN","213.304","4.164","NaN","0","318",NA
"149","R_3RvJhcf0GInSph2","standard","2","73","LP","19.8235243429556","214.309","NaN","219.474","5.165","NaN","0","318",NA
"150","R_3RvJhcf0GInSph2","standard","2","74","LP","5.5010771219302","220.476","NaN","224.232","3.756","NaN","0","318",NA
"151","R_3RvJhcf0GInSph2","standard","2","75","LP","3.49090909090909","225.236","228.728","229.008","3.772","0.28","3","321",NA
"152","R_3RvJhcf0GInSph2","standard","2","76","LP","0.264713485566566","230.012","230.28","230.769","0.757","0.489","3","324",NA
"153","R_3RvJhcf0GInSph2","standard","2","77","LP","19.8235243429556","231.771","NaN","237.888","6.117","NaN","0","324",NA
"154","R_3RvJhcf0GInSph2","standard","2","78","LP","5.5010771219302","238.889","244.392","244.666","5.777","0.274","3","327",NA
"155","R_3RvJhcf0GInSph2","standard","2","79","LP","30","245.668","NaN","251.832","6.164","NaN","0","327",NA
"156","R_3RvJhcf0GInSph2","standard","2","80","LP","30","252.833","NaN","254.344","1.511","NaN","0","327",NA
"157","R_3RvJhcf0GInSph2","standard","2","81","LP","0.661783713916415","255.348","256.013","256.353","1.005","0.34","3","330",NA
"158","R_3RvJhcf0GInSph2","standard","2","82","LP","13.0392072382594","257.356","NaN","258.631","1.275","NaN","0","330",NA
"159","R_3RvJhcf0GInSph2","standard","2","83","LP","5.5010771219302","259.632","NaN","261.687","2.055","NaN","0","330",NA
"160","R_3RvJhcf0GInSph2","standard","2","84","LP","1.25738905644119","262.688","263.948","264.312","1.624","0.364","3","333",NA
"161","R_3RvJhcf0GInSph2","standard","2","85","LP","30","265.317","NaN","267.896","2.579","NaN","0","333",NA
"162","R_3RvJhcf0GInSph2","standard","2","86","LP","30","268.899","NaN","271.904","3.005","NaN","0","333",NA
"163","R_3RvJhcf0GInSph2","standard","2","87","LP","8.51632916846187","272.908","NaN","276.584","3.676","NaN","0","333",NA
"164","R_3RvJhcf0GInSph2","standard","2","88","LP","2.15079707022835","277.588","279.739","280.21","2.622","0.471","3","336",NA
"165","R_3RvJhcf0GInSph2","standard","2","89","LP","19.8235243429556","281.212","NaN","285.751","4.539","NaN","0","336",NA
"166","R_3RvJhcf0GInSph2","standard","2","90","LP","3.49090909090909","286.753","290.244","290.728","3.975","0.484","3","339",NA
"167","R_3RvJhcf0GInSph2","standard","2","91","LP","30","291.729","NaN","294.768","3.039","NaN","0","339",NA
"168","R_3RvJhcf0GInSph2","standard","2","92","LP","30","295.771","NaN","300.824","5.053","NaN","0","339",NA
"169","R_3RvJhcf0GInSph2","standard","2","93","LP","3.49090909090909","301.825","NaN","304.983","3.158","NaN","0","339",NA
"170","R_3RvJhcf0GInSph2","standard","2","94","LP","30","305.988","NaN","309.295","3.307","NaN","0","339",NA
"171","R_3RvJhcf0GInSph2","standard","2","95","LP","0.264713485566566","310.296","310.564","310.913","0.617","0.349","3","342",NA
"172","R_3RvJhcf0GInSph2","standard","2","96","LP","1.25738905644119","311.915","313.173","313.463","1.548","0.29","3","345",NA
"173","R_3RvJhcf0GInSph2","standard","2","97","LP","30","314.464","NaN","317.335","2.871","NaN","0","345",NA
"174","R_3RvJhcf0GInSph2","standard","2","98","LP","30","318.336","NaN","320.071","1.735","NaN","0","345",NA
"175","R_3RvJhcf0GInSph2","standard","2","99","LP","8.51632916846187","321.076","NaN","324.313","3.237","NaN","0","345",NA
"176","R_3RvJhcf0GInSph2","standard","2","100","LP","3.49090909090909","325.316","328.808","329.143","3.827","0.335","3","348",NA
"177","R_3RvJhcf0GInSph2","standard","2","101","LP","19.8235243429556","330.145","NaN","338.09","7.945","NaN","0","348",NA
"178","R_3RvJhcf0GInSph2","standard","2","102","LP","0.264713485566566","339.092","339.357","339.976","0.884","0.619","3","351",NA
"179","R_3RvJhcf0GInSph2","standard","2","103","LP","2.15079707022835","340.977","343.129","343.616","2.639","0.487","3","354",NA
"180","R_3RvJhcf0GInSph2","standard","2","104","LP","1.25738905644119","344.617","345.876","346.368","1.751","0.492","3","357",NA
"181","R_3RvJhcf0GInSph2","standard","2","105","LP","0.264713485566566","347.369","347.637","348.192","0.823","0.555","3","360",NA
"182","R_3RvJhcf0GInSph2","standard","2","106","LP","5.5010771219302","349.195","NaN","353.759","4.564","NaN","0","360",NA
"183","R_3RvJhcf0GInSph2","standard","2","107","LP","30","354.761","NaN","360.776","6.015","NaN","0","360",NA
"184","R_3RvJhcf0GInSph2","standard","2","108","LP","5.5010771219302","361.78","NaN","365.783","4.003","NaN","0","360",NA
"185","R_3RvJhcf0GInSph2","standard","2","109","LP","19.8235243429556","366.785","NaN","369.471","2.686","NaN","0","360",NA
"186","R_3RvJhcf0GInSph2","standard","2","110","LP","0.264713485566566","370.474","370.741","371.008","0.534","0.267","3","363",NA
"187","R_3RvJhcf0GInSph2","standard","2","111","LP","0.264713485566566","372.009","372.277","372.593","0.584","0.316","3","366",NA
"188","R_3RvJhcf0GInSph2","standard","2","112","LP","5.5010771219302","373.594","NaN","376.415","2.821","NaN","0","366",NA
"189","R_3RvJhcf0GInSph2","standard","2","113","LP","13.0392072382594","377.417","NaN","379.863","2.446","NaN","0","366",NA
"190","R_3RvJhcf0GInSph2","standard","2","114","LP","3.49090909090909","380.864","NaN","383.984","3.12","NaN","0","366",NA
"191","R_3RvJhcf0GInSph2","standard","2","115","LP","0.264713485566566","384.988","385.253","385.609","0.621","0.356","3","369",NA
"192","R_3RvJhcf0GInSph2","standard","2","116","LP","19.8235243429556","386.613","NaN","388.799","2.186","NaN","0","369",NA
"193","R_3RvJhcf0GInSph2","standard","2","117","LP","13.0392072382594","389.801","NaN","391.44","1.639","NaN","0","369",NA
"194","R_3RvJhcf0GInSph2","standard","2","118","LP","13.0392072382594","392.44","NaN","394.711","2.271","NaN","0","369",NA
"195","R_3RvJhcf0GInSph2","standard","2","119","LP","30","395.713","NaN","399.352","3.639","NaN","0","369",NA
"196","R_3RvJhcf0GInSph2","standard","2","120","LP","19.8235243429556","400.357","NaN","404.904","4.547","NaN","0","369",NA
"197","R_3RvJhcf0GInSph2","standard","2","121","LP","13.0392072382594","405.908","NaN","408.135","2.227","NaN","0","369",NA
"198","R_3RvJhcf0GInSph2","standard","2","122","LP","0.264713485566566","409.136","409.401","409.695","0.559","0.294","3","372",NA
"199","R_3RvJhcf0GInSph2","standard","2","123","LP","0.661783713916415","410.697","411.361","411.775","1.078","0.414","3","375",NA
"200","R_3RvJhcf0GInSph2","standard","2","124","LP","5.5010771219302","412.777","NaN","413.895","1.118","NaN","0","375",NA
"201","R_3RvJhcf0GInSph2","standard","2","125","LP","0.661783713916415","414.898","415.561","415.578","0.68","0.017","3","378",NA
"202","R_3RvJhcf0GInSph2","standard","2","126","LP","0.264713485566566","416.58","416.846","417.16","0.58","0.314","3","381",NA
"203","R_3RvJhcf0GInSph2","standard","2","127","LP","8.51632916846187","418.16","NaN","420.807","2.647","NaN","0","381",NA
"204","R_3RvJhcf0GInSph2","standard","2","128","LP","1.25738905644119","421.808","423.068","423.559","1.751","0.491","3","384",NA
"205","R_3RvJhcf0GInSph2","standard","2","129","LP","8.51632916846187","424.56","NaN","427.687","3.127","NaN","0","384",NA
"206","R_3RvJhcf0GInSph2","standard","2","130","LP","2.15079707022835","428.69","430.84","431.271","2.581","0.431","3","387",NA
"207","R_3RvJhcf0GInSph2","standard","2","131","LP","0.264713485566566","432.272","432.541","432.839","0.567","0.298","3","390",NA
"208","R_3RvJhcf0GInSph2","standard","2","132","LP","8.51632916846187","433.841","NaN","437.799","3.958","NaN","0","390",NA
"209","R_3RvJhcf0GInSph2","standard","2","133","LP","30","438.801","NaN","442.183","3.382","NaN","0","390",NA
"210","R_3RvJhcf0GInSph2","standard","2","134","LP","13.0392072382594","443.185","NaN","448.607","5.422","NaN","0","390",NA
"211","R_3RvJhcf0GInSph2","standard","2","135","LP","19.8235243429556","449.609","NaN","451.815","2.206","NaN","0","390",NA
"212","R_3RvJhcf0GInSph2","standard","2","136","LP","0.661783713916415","452.817","453.481","453.751","0.934","0.27","3","393",NA
"213","R_3RvJhcf0GInSph2","standard","2","137","LP","13.0392072382594","454.752","NaN","458.399","3.647","NaN","0","393",NA
"214","R_3RvJhcf0GInSph2","standard","2","138","LP","0.264713485566566","459.401","459.668","460.159","0.758","0.491","3","396",NA
"215","R_3RvJhcf0GInSph2","standard","2","139","LP","5.5010771219302","461.161","NaN","464.543","3.382","NaN","0","396",NA
"216","R_3RvJhcf0GInSph2","standard","2","140","LP","8.51632916846187","465.545","NaN","469.415","3.87","NaN","0","396",NA
"217","R_3RvJhcf0GInSph2","standard","2","141","LP","1.25738905644119","470.417","471.678","471.951","1.534","0.273","3","399",NA
"218","R_3RvJhcf0GInSph2","standard","2","142","LP","8.51632916846187","472.953","NaN","477.318","4.365","NaN","0","399",NA
"219","R_3RvJhcf0GInSph2","standard","2","143","LP","8.51632916846187","478.32","NaN","482.113","3.793","NaN","0","399",NA
"220","R_3RvJhcf0GInSph2","standard","2","144","LP","5.5010771219302","483.117","NaN","486.574","3.457","NaN","0","399",NA
"221","R_3RvJhcf0GInSph2","standard","2","145","LP","2.15079707022835","487.576","489.73","489.734","2.158","0.004","3","402",NA
"222","R_3RvJhcf0GInSph2","standard","2","146","LP","8.51632916846187","490.736","NaN","495.384","4.648","NaN","0","402",NA
"223","R_3RvJhcf0GInSph2","standard","2","147","LP","1.25738905644119","496.386","497.645","497.927","1.541","0.282","3","405",NA
"224","R_3RvJhcf0GInSph2","standard","2","148","LP","13.0392072382594","498.929","NaN","501.734","2.805","NaN","0","405",NA
"225","R_3RvJhcf0GInSph2","standard","2","149","LP","3.49090909090909","502.737","NaN","505.922","3.185","NaN","0","405",NA
"226","R_3RvJhcf0GInSph2","standard","2","150","LP","3.49090909090909","506.924","NaN","509.511","2.587","NaN","0","405",NA
"227","R_3RvJhcf0GInSph2","standard","2","151","LP","3.49090909090909","510.512","514.008","514.359","3.847","0.351","3","408",NA
"228","R_3RvJhcf0GInSph2","standard","2","152","LP","30","515.362","NaN","518.735","3.373","NaN","0","408",NA
"229","R_3RvJhcf0GInSph2","standard","2","153","LP","0.264713485566566","519.737","520.009","520.375","0.638","0.366","3","411",NA
"230","R_3RvJhcf0GInSph2","standard","2","154","LP","0.264713485566566","521.377","521.645","521.968","0.591","0.323","3","414",NA
"231","R_3RvJhcf0GInSph2","standard","2","155","LP","1.25738905644119","522.973","524.232","524.527","1.554","0.295","3","417",NA
"232","R_3RvJhcf0GInSph2","standard","2","156","LP","30","525.529","NaN","527.559","2.03","NaN","0","417",NA
"233","R_3RvJhcf0GInSph2","standard","2","157","LP","8.51632916846187","528.562","NaN","529.672","1.11","NaN","0","417",NA
"234","R_3RvJhcf0GInSph2","standard","2","158","LP","2.15079707022835","530.674","NaN","531.888","1.214","NaN","0","417",NA
"235","R_3RvJhcf0GInSph2","standard","2","159","LP","19.8235243429556","532.889","NaN","533.575","0.686","NaN","0","417",NA
"236","R_3RvJhcf0GInSph2","standard","2","160","LP","0.264713485566566","534.576","534.844","535.159","0.583","0.315","3","420",NA
"237","R_3RvJhcf0GInSph2","standard","2","161","LP","3.49090909090909","536.162","NaN","538.127","1.965","NaN","0","420",NA
"238","R_3RvJhcf0GInSph2","standard","2","162","LP","1.25738905644119","539.129","540.389","540.744","1.615","0.355","3","423",NA
"239","R_3RvJhcf0GInSph2","standard","2","163","LP","3.49090909090909","541.744","NaN","542.855","1.111","NaN","0","423",NA
"240","R_3RvJhcf0GInSph2","standard","2","164","LP","8.51632916846187","543.856","NaN","544.711","0.855","NaN","0","423",NA
"241","R_3RvJhcf0GInSph2","standard","2","165","LP","5.5010771219302","545.712","NaN","547.167","1.455","NaN","0","423",NA
"242","R_3RvJhcf0GInSph2","standard","2","166","LP","30","548.169","NaN","549.542","1.373","NaN","0","423",NA
"243","R_3RvJhcf0GInSph2","standard","2","167","LP","0.264713485566566","550.545","550.813","551.111","0.566","0.298","3","426",NA
"244","R_3RvJhcf0GInSph2","standard","2","168","LP","2.15079707022835","552.113","554.265","554.559","2.446","0.294","3","429",NA
"245","R_3RvJhcf0GInSph2","standard","2","169","LP","5.5010771219302","555.561","NaN","558.216","2.655","NaN","0","429",NA
"246","R_3RvJhcf0GInSph2","standard","2","170","LP","2.15079707022835","559.217","561.369","561.528","2.311","0.159","3","432",NA
"247","R_3RvJhcf0GInSph2","standard","2","171","LP","8.51632916846187","562.532","NaN","564.607","2.075","NaN","0","432",NA
"248","R_3RvJhcf0GInSph2","standard","2","172","LP","1.25738905644119","565.609","566.869","567.135","1.526","0.266","3","435",NA
"249","R_3RvJhcf0GInSph2","standard","2","173","LP","0.264713485566566","568.136","568.401","568.734","0.598","0.333","3","438",NA
"250","R_3RvJhcf0GInSph2","standard","2","174","LP","8.51632916846187","569.737","NaN","571.88","2.143","NaN","0","438",NA
"251","R_3RvJhcf0GInSph2","standard","2","175","LP","19.8235243429556","572.885","NaN","573.455","0.57","NaN","0","438",NA
"252","R_3RvJhcf0GInSph2","standard","2","176","LP","30","574.457","NaN","575.255","0.798","NaN","0","438",NA
"253","R_3RvJhcf0GInSph2","standard","2","177","LP","19.8235243429556","576.257","NaN","577.071","0.814","NaN","0","438",NA
"254","R_3RvJhcf0GInSph2","standard","2","178","LP","8.51632916846187","578.073","NaN","580.223","2.15","NaN","0","438",NA
"255","R_3RvJhcf0GInSph2","standard","2","179","LP","0.661783713916415","581.224","581.889","582.216","0.992","0.327","3","441",NA
"256","R_3RvJhcf0GInSph2","standard","2","180","LP","8.51632916846187","583.216","NaN","585.118","1.902","NaN","0","441",NA
"257","R_3RvJhcf0GInSph2","standard","2","181","LP","19.8235243429556","586.121","NaN","587.11","0.989","NaN","0","441",NA
"258","R_3RvJhcf0GInSph2","standard","2","182","LP","3.49090909090909","588.114","NaN","590.102","1.988","NaN","0","441",NA
"259","R_3RvJhcf0GInSph2","standard","2","183","LP","8.51632916846187","591.109","NaN","592.91","1.801","NaN","0","441",NA
"260","R_3RvJhcf0GInSph2","standard","2","184","LP","2.15079707022835","593.913","NaN","594.79","0.877","NaN","0","441",NA
"261","R_3RvJhcf0GInSph2","standard","2","185","LP","8.51632916846187","595.794","NaN","597.255","1.461","NaN","0","441",NA
"262","R_3RvJhcf0GInSph2","standard","2","186","LP","0.264713485566566","598.257","598.525","598.838","0.581","0.313","3","444",NA
