"","subject_id","condition","n_block","n_trialIdx","f_timing_condition","n_scheduled_delay","n_trial_start_time","n_rewarded_time_fin","n_sell_time_fin","n_time_waited_fin","RT_fin","n_trial_earnings_fin","n_total_earnings_fin","keypress_times"
"1","R_3RjDO4bIMIBqze9","standard","1","1","LP","5.5010771219302","0.002","5.505","5.96","5.958","0.455","3","3",""
"2","R_3RjDO4bIMIBqze9","standard","1","2","LP","13.0392072382594","6.969","20.017","20.318","13.349","0.301","3","6",""
"3","R_3RjDO4bIMIBqze9","standard","1","3","LP","13.0392072382594","21.321","34.36","34.667","13.346","0.307","3","9",""
"4","R_3RjDO4bIMIBqze9","standard","1","4","LP","13.0392072382594","35.675","48.724","49.113","13.438","0.389","3","12",""
"5","R_3RjDO4bIMIBqze9","standard","1","5","LP","13.0392072382594","50.115","63.175","63.566","13.451","0.391","3","12","1170"
"6","R_3RjDO4bIMIBqze9","standard","1","6","LP","2.15079707022835","64.576","66.743","67.247","2.671","0.504","3","15",""
"7","R_3RjDO4bIMIBqze9","standard","1","7","LP","19.8235243429556","68.25","88.084","88.366","20.116","0.282","3","18",""
"8","R_3RjDO4bIMIBqze9","standard","1","8","LP","3.49090909090909","89.369","92.865","93.688","4.319","0.823","3","21",""
"9","R_3RjDO4bIMIBqze9","standard","1","9","LP","0.661783713916415","94.712","95.376","96.348","1.636","0.972","3","24",""
"10","R_3RjDO4bIMIBqze9","standard","1","10","LP","1.25738905644119","97.356","98.614","99.214","1.858","0.6","3","27",""
"11","R_3RjDO4bIMIBqze9","standard","1","11","LP","13.0392072382594","100.225","113.276","113.576","13.351","0.3","3","30",""
"12","R_3RjDO4bIMIBqze9","standard","1","12","LP","5.5010771219302","114.598","120.107","120.504","5.906","0.397","3","33",""
"13","R_3RjDO4bIMIBqze9","standard","1","13","LP","1.25738905644119","121.506","122.771","123.282","1.776","0.511","3","36",""
"14","R_3RjDO4bIMIBqze9","standard","1","14","LP","3.49090909090909","124.294","127.802","128.233","3.939","0.431","3","39",""
"15","R_3RjDO4bIMIBqze9","standard","1","15","LP","0.661783713916415","129.241","129.911","130.267","1.026","0.356","3","42",""
"16","R_3RjDO4bIMIBqze9","standard","1","16","LP","0.264713485566566","131.275","131.543","131.878","0.603","0.335","3","45",""
"17","R_3RjDO4bIMIBqze9","standard","1","17","LP","0.264713485566566","132.892","133.17","133.476","0.584","0.306","3","48",""
"18","R_3RjDO4bIMIBqze9","standard","1","18","LP","0.264713485566566","134.482","134.758","135.04","0.558","0.282","3","51",""
"19","R_3RjDO4bIMIBqze9","standard","1","19","LP","19.8235243429556","136.042","155.874","156.198","20.156","0.324","3","54",""
"20","R_3RjDO4bIMIBqze9","standard","1","20","LP","2.15079707022835","157.214","159.38","159.841","2.627","0.461","3","57",""
"21","R_3RjDO4bIMIBqze9","standard","1","21","LP","0.264713485566566","160.848","161.128","161.457","0.609","0.329","3","60",""
"22","R_3RjDO4bIMIBqze9","standard","1","22","LP","0.264713485566566","162.465","162.74","163.151","0.686","0.411","3","63",""
"23","R_3RjDO4bIMIBqze9","standard","1","23","LP","0.661783713916415","164.159","164.824","165.163","1.004","0.339","3","66",""
"24","R_3RjDO4bIMIBqze9","standard","1","24","LP","8.51632916846187","166.18","174.712","175.096","8.916","0.384","3","69",""
"25","R_3RjDO4bIMIBqze9","standard","1","25","LP","19.8235243429556","176.105","195.937","196.269","20.164","0.332","3","72",""
"26","R_3RjDO4bIMIBqze9","standard","1","26","LP","19.8235243429556","197.28","217.116","217.457","20.177","0.341","3","75",""
"27","R_3RjDO4bIMIBqze9","standard","1","27","LP","3.49090909090909","218.469","221.968","222.386","3.917","0.418","3","78",""
"28","R_3RjDO4bIMIBqze9","standard","1","28","LP","8.51632916846187","223.404","231.922","232.705","9.301","0.783","3","81",""
"29","R_3RjDO4bIMIBqze9","standard","1","29","LP","8.51632916846187","233.708","242.226","242.67","8.962","0.444","3","84",""
"30","R_3RjDO4bIMIBqze9","standard","1","30","LP","1.25738905644119","243.673","244.939","245.397","1.724","0.458","3","87",""
"31","R_3RjDO4bIMIBqze9","standard","1","31","LP","3.49090909090909","246.407","249.914","250.601","4.194","0.687","3","90",""
"32","R_3RjDO4bIMIBqze9","standard","1","32","LP","0.661783713916415","251.613","252.283","252.897","1.284","0.614","3","93",""
"33","R_3RjDO4bIMIBqze9","standard","1","33","LP","3.49090909090909","253.916","257.42","257.794","3.878","0.374","3","96",""
"34","R_3RjDO4bIMIBqze9","standard","1","34","LP","2.15079707022835","258.804","260.962","261.419","2.615","0.457","3","99",""
"35","R_3RjDO4bIMIBqze9","standard","1","35","LP","3.49090909090909","262.429","265.924","266.337","3.908","0.413","3","102",""
"36","R_3RjDO4bIMIBqze9","standard","1","36","LP","0.661783713916415","267.344","268.023","268.467","1.123","0.444","3","105",""
"37","R_3RjDO4bIMIBqze9","standard","1","37","LP","13.0392072382594","269.476","282.519","282.89","13.414","0.371","3","108",""
"38","R_3RjDO4bIMIBqze9","standard","1","38","LP","2.15079707022835","283.903","286.054","286.539","2.636","0.485","3","111",""
"39","R_3RjDO4bIMIBqze9","standard","1","39","LP","0.661783713916415","287.547","288.21","288.7","1.153","0.49","3","114",""
"40","R_3RjDO4bIMIBqze9","standard","1","40","LP","8.51632916846187","289.705","298.224","298.647","8.942","0.423","3","117",""
"41","R_3RjDO4bIMIBqze9","standard","1","41","LP","1.25738905644119","299.65","300.913","301.335","1.685","0.422","3","120",""
"42","R_3RjDO4bIMIBqze9","standard","1","42","LP","5.5010771219302","302.349","307.864","308.25","5.901","0.386","3","123",""
"43","R_3RjDO4bIMIBqze9","standard","1","43","LP","3.49090909090909","309.258","312.754","313.74","4.482","0.986","3","126",""
"44","R_3RjDO4bIMIBqze9","standard","1","44","LP","19.8235243429556","314.745","334.571","335.033","20.288","0.462","3","126","3059"
"45","R_3RjDO4bIMIBqze9","standard","1","45","LP","5.5010771219302","336.041","341.547","341.936","5.895","0.389","3","129",""
"46","R_3RjDO4bIMIBqze9","standard","1","46","LP","3.49090909090909","342.938","346.437","346.835","3.897","0.398","3","132",""
"47","R_3RjDO4bIMIBqze9","standard","1","47","LP","19.8235243429556","347.841","367.682","368.174","20.333","0.492","3","135",""
"48","R_3RjDO4bIMIBqze9","standard","1","48","LP","8.51632916846187","369.189","377.707","378.19","9.001","0.483","3","138",""
"49","R_3RjDO4bIMIBqze9","standard","1","49","LP","3.49090909090909","379.198","382.708","383.072","3.874","0.364","3","141",""
"50","R_3RjDO4bIMIBqze9","standard","1","50","LP","5.5010771219302","384.085","389.598","390.047","5.962","0.449","3","144",""
"51","R_3RjDO4bIMIBqze9","standard","1","51","LP","5.5010771219302","391.051","396.563","397.001","5.95","0.438","3","147",""
"52","R_3RjDO4bIMIBqze9","standard","1","52","LP","5.5010771219302","398.016","403.529","403.898","5.882","0.369","3","150",""
"53","R_3RjDO4bIMIBqze9","standard","1","53","LP","13.0392072382594","404.917","417.956","418.402","13.485","0.446","3","153",""
"54","R_3RjDO4bIMIBqze9","standard","1","54","LP","1.25738905644119","419.408","420.678","421.063","1.655","0.385","3","156",""
"55","R_3RjDO4bIMIBqze9","standard","1","55","LP","1.25738905644119","422.072","423.337","423.741","1.669","0.404","3","159",""
"56","R_3RjDO4bIMIBqze9","standard","1","56","LP","2.15079707022835","424.748","426.913","427.371","2.623","0.458","3","162",""
"57","R_3RjDO4bIMIBqze9","standard","1","57","LP","0.264713485566566","428.381","428.652","429.119","0.738","0.467","3","165",""
"58","R_3RjDO4bIMIBqze9","standard","1","58","LP","8.51632916846187","430.12","438.637","439.044","8.924","0.407","3","168",""
"59","R_3RjDO4bIMIBqze9","standard","1","59","LP","5.5010771219302","440.045","445.554","445.91","5.865","0.356","3","171",""
"60","R_3RjDO4bIMIBqze9","standard","1","60","LP","8.51632916846187","446.916","455.442","455.959","9.043","0.517","3","174",""
"61","R_3RjDO4bIMIBqze9","standard","1","61","LP","1.25738905644119","456.977","458.241","458.728","1.751","0.487","3","177",""
"62","R_3RjDO4bIMIBqze9","standard","1","62","LP","0.661783713916415","459.742","460.421","460.862","1.12","0.441","3","180",""
"63","R_3RjDO4bIMIBqze9","standard","1","63","LP","13.0392072382594","461.865","474.907","475.387","13.522","0.48","3","183",""
"64","R_3RjDO4bIMIBqze9","standard","1","64","LP","8.51632916846187","476.4","484.923","485.336","8.936","0.413","3","186",""
"65","R_3RjDO4bIMIBqze9","standard","1","65","LP","0.661783713916415","486.354","487.02","487.529","1.175","0.509","3","189",""
"66","R_3RjDO4bIMIBqze9","standard","1","66","LP","3.49090909090909","488.541","492.034","492.469","3.928","0.435","3","192",""
"67","R_3RjDO4bIMIBqze9","standard","1","67","LP","30","493.474","523.485","523.835","30.361","0.35","3","195",""
"68","R_3RjDO4bIMIBqze9","standard","1","68","LP","2.15079707022835","524.852","527.023","527.412","2.56","0.389","3","198",""
"69","R_3RjDO4bIMIBqze9","standard","1","69","LP","8.51632916846187","528.414","536.935","537.316","8.902","0.381","3","201",""
"70","R_3RjDO4bIMIBqze9","standard","1","70","LP","30","538.319","568.328","568.748","30.429","0.42","3","201","10321"
"71","R_3RjDO4bIMIBqze9","standard","1","71","LP","1.25738905644119","569.768","571.034","571.554","1.786","0.52","3","204",""
"72","R_3RjDO4bIMIBqze9","standard","1","72","LP","19.8235243429556","572.566","592.401","592.845","20.279","0.444","3","207",""
"73","R_3RjDO4bIMIBqze9","standard","1","73","LP","13.0392072382594","593.852","606.902","607.35","13.498","0.448","3","207","6018"
"74","R_3RjDO4bIMIBqze9","standard","1","74","LP","5.5010771219302","608.353","613.856","614.442","6.089","0.586","3","210",""
"75","R_3RjDO4bIMIBqze9","standard","1","75","LP","30","615.452","645.458","645.935","30.483","0.477","3","213",""
"76","R_3RjDO4bIMIBqze9","standard","1","76","LP","0.661783713916415","646.941","647.611","648.302","1.361","0.691","3","216",""
"77","R_3RjDO4bIMIBqze9","standard","1","77","LP","0.661783713916415","649.309","649.974","650.499","1.19","0.525","3","219",""
"78","R_3RjDO4bIMIBqze9","standard","1","78","LP","8.51632916846187","651.52","660.045","660.724","9.204","0.679","3","222",""
"79","R_3RjDO4bIMIBqze9","standard","1","79","LP","1.25738905644119","661.727","663.007","663.476","1.749","0.469","3","225",""
"80","R_3RjDO4bIMIBqze9","standard","1","80","LP","8.51632916846187","664.484","673.021","673.378","8.894","0.357","3","228",""
"81","R_3RjDO4bIMIBqze9","standard","1","81","LP","2.15079707022835","674.387","676.547","676.892","2.505","0.345","3","231",""
"82","R_3RjDO4bIMIBqze9","standard","1","82","LP","0.661783713916415","677.903","678.576","678.984","1.081","0.408","3","234",""
"83","R_3RjDO4bIMIBqze9","standard","1","83","LP","0.661783713916415","680.004","680.678","681.19","1.186","0.512","3","237",""
"84","R_3RjDO4bIMIBqze9","standard","1","84","LP","30","682.194","712.206","712.649","30.455","0.443","3","240",""
"85","R_3RjDO4bIMIBqze9","standard","1","85","LP","19.8235243429556","713.652","733.481","733.81","20.158","0.329","3","243",""
"86","R_3RjDO4bIMIBqze9","standard","1","86","LP","30","734.818","764.821","765.227","30.409","0.406","3","246",""
"87","R_3RjDO4bIMIBqze9","standard","1","87","LP","0.661783713916415","766.241","766.915","767.35","1.109","0.435","3","249",""
"88","R_3RjDO4bIMIBqze9","standard","1","88","LP","30","768.356","798.36","798.814","30.458","0.454","3","252",""
"89","R_3RjDO4bIMIBqze9","standard","1","89","LP","13.0392072382594","799.821","812.873","813.328","13.507","0.455","3","255",""
"90","R_3RjDO4bIMIBqze9","standard","1","90","LP","8.51632916846187","814.347","822.873","823.261","8.914","0.388","3","258",""
"91","R_3RjDO4bIMIBqze9","standard","1","91","LP","3.49090909090909","824.281","827.787","828.25","3.969","0.463","3","261",""
"92","R_3RjDO4bIMIBqze9","standard","1","92","LP","0.264713485566566","829.256","829.528","829.977","0.721","0.449","3","264",""
"93","R_3RjDO4bIMIBqze9","standard","1","93","LP","0.661783713916415","830.983","831.647","832.033","1.05","0.386","3","267",""
"94","R_3RjDO4bIMIBqze9","standard","1","94","LP","3.49090909090909","833.039","836.538","836.911","3.872","0.373","3","270",""
"95","R_3RjDO4bIMIBqze9","standard","1","95","LP","2.15079707022835","837.92","840.084","840.404","2.484","0.32","3","273",""
"96","R_3RjDO4bIMIBqze9","standard","1","96","LP","30","841.411","871.422","871.932","30.521","0.51","3","276",""
"97","R_3RjDO4bIMIBqze9","standard","2","1","LP","13.0392072382594","0","13.044","13.53","13.53","0.486","3","279",NA
"98","R_3RjDO4bIMIBqze9","standard","2","2","LP","0.264713485566566","14.539","14.808","15.771","1.232","0.963","3","282",NA
"99","R_3RjDO4bIMIBqze9","standard","2","3","LP","0.264713485566566","16.776","17.054","17.43","0.654","0.376","3","285",NA
"100","R_3RjDO4bIMIBqze9","standard","2","4","LP","0.661783713916415","18.433","19.111","19.418","0.985","0.307","3","288",NA
"101","R_3RjDO4bIMIBqze9","standard","2","5","LP","13.0392072382594","20.419","33.468","34.019","13.6","0.551","3","291",NA
"102","R_3RjDO4bIMIBqze9","standard","2","6","LP","0.264713485566566","35.025","35.303","35.759","0.734","0.456","3","294",NA
"103","R_3RjDO4bIMIBqze9","standard","2","7","LP","13.0392072382594","36.769","49.815","50.187","13.418","0.372","3","297",NA
"104","R_3RjDO4bIMIBqze9","standard","2","8","LP","0.264713485566566","51.197","51.466","51.764","0.567","0.298","3","300",NA
"105","R_3RjDO4bIMIBqze9","standard","2","9","LP","8.51632916846187","52.782","61.309","61.705","8.923","0.396","3","303",NA
"106","R_3RjDO4bIMIBqze9","standard","2","10","LP","5.5010771219302","62.707","68.217","68.685","5.978","0.468","3","306",NA
"107","R_3RjDO4bIMIBqze9","standard","2","11","LP","1.25738905644119","69.7","70.964","71.403","1.703","0.439","3","309",NA
"108","R_3RjDO4bIMIBqze9","standard","2","12","LP","3.49090909090909","72.411","75.906","76.437","4.026","0.531","3","312",NA
"109","R_3RjDO4bIMIBqze9","standard","2","13","LP","0.661783713916415","77.44","78.105","78.433","0.993","0.328","3","315",NA
"110","R_3RjDO4bIMIBqze9","standard","2","14","LP","30","79.439","NaN","96.196","16.757","NaN","0","315",NA
"111","R_3RjDO4bIMIBqze9","standard","2","15","LP","13.0392072382594","97.215","110.255","110.723","13.508","0.468","3","318",NA
"112","R_3RjDO4bIMIBqze9","standard","2","16","LP","0.661783713916415","111.732","112.414","112.999","1.267","0.585","3","321",NA
"113","R_3RjDO4bIMIBqze9","standard","2","17","LP","19.8235243429556","114.006","NaN","132.788","18.782","NaN","0","321",NA
"114","R_3RjDO4bIMIBqze9","standard","2","18","LP","0.264713485566566","133.798","134.079","134.408","0.61","0.329","3","324",NA
"115","R_3RjDO4bIMIBqze9","standard","2","19","LP","3.49090909090909","135.421","138.913","139.254","3.833","0.341","3","327",NA
"116","R_3RjDO4bIMIBqze9","standard","2","20","LP","30","140.261","NaN","161.029","20.768","NaN","0","327",NA
"117","R_3RjDO4bIMIBqze9","standard","2","21","LP","19.8235243429556","162.032","181.86","182.243","20.211","0.383","3","330",NA
"118","R_3RjDO4bIMIBqze9","standard","2","22","LP","13.0392072382594","183.258","196.314","196.748","13.49","0.434","3","333",NA
"119","R_3RjDO4bIMIBqze9","standard","2","23","LP","3.49090909090909","197.769","201.274","201.768","3.999","0.494","3","336",NA
"120","R_3RjDO4bIMIBqze9","standard","2","24","LP","1.25738905644119","202.782","204.049","204.427","1.645","0.378","3","339",NA
"121","R_3RjDO4bIMIBqze9","standard","2","25","LP","2.15079707022835","205.428","207.596","207.961","2.533","0.365","3","342",NA
"122","R_3RjDO4bIMIBqze9","standard","2","26","LP","8.51632916846187","208.979","217.502","217.869","8.89","0.367","3","345",NA
"123","R_3RjDO4bIMIBqze9","standard","2","27","LP","8.51632916846187","218.886","227.413","227.736","8.85","0.323","3","348",NA
"124","R_3RjDO4bIMIBqze9","standard","2","28","LP","13.0392072382594","228.745","241.796","242.302","13.557","0.506","3","351",NA
"125","R_3RjDO4bIMIBqze9","standard","2","29","LP","0.264713485566566","243.315","243.596","244.03","0.715","0.434","3","354",NA
"126","R_3RjDO4bIMIBqze9","standard","2","30","LP","3.49090909090909","245.039","248.541","248.958","3.919","0.417","3","357",NA
"127","R_3RjDO4bIMIBqze9","standard","2","31","LP","0.661783713916415","249.962","250.632","251.132","1.17","0.5","3","360",NA
"128","R_3RjDO4bIMIBqze9","standard","2","32","LP","0.661783713916415","252.143","252.822","253.251","1.108","0.429","3","363",NA
"129","R_3RjDO4bIMIBqze9","standard","2","33","LP","30","254.261","NaN","271.614","17.353","NaN","0","363",NA
"130","R_3RjDO4bIMIBqze9","standard","2","34","LP","19.8235243429556","272.615","292.439","292.9","20.285","0.461","3","366",NA
"131","R_3RjDO4bIMIBqze9","standard","2","35","LP","13.0392072382594","293.905","306.95","307.335","13.43","0.385","3","369",NA
"132","R_3RjDO4bIMIBqze9","standard","2","36","LP","19.8235243429556","308.349","328.183","328.682","20.333","0.499","3","372",NA
"133","R_3RjDO4bIMIBqze9","standard","2","37","LP","5.5010771219302","329.7","335.22","336.187","6.487","0.967","3","375",NA
"134","R_3RjDO4bIMIBqze9","standard","2","38","LP","3.49090909090909","337.195","340.702","341.169","3.974","0.467","3","378",NA
"135","R_3RjDO4bIMIBqze9","standard","2","39","LP","1.25738905644119","342.19","343.463","343.977","1.787","0.514","3","381",NA
"136","R_3RjDO4bIMIBqze9","standard","2","40","LP","30","344.997","375.012","375.384","30.387","0.372","3","384",NA
"137","R_3RjDO4bIMIBqze9","standard","2","41","LP","30","376.394","NaN","401.21","24.816","NaN","0","384",NA
"138","R_3RjDO4bIMIBqze9","standard","2","42","LP","3.49090909090909","402.211","405.705","406.154","3.943","0.449","3","387",NA
"139","R_3RjDO4bIMIBqze9","standard","2","43","LP","30","407.164","NaN","427.889","20.725","NaN","0","387",NA
"140","R_3RjDO4bIMIBqze9","standard","2","44","LP","2.15079707022835","428.897","431.072","431.757","2.86","0.685","3","390",NA
"141","R_3RjDO4bIMIBqze9","standard","2","45","LP","8.51632916846187","432.771","441.296","441.69","8.919","0.394","3","393",NA
"142","R_3RjDO4bIMIBqze9","standard","2","46","LP","0.661783713916415","442.707","443.382","443.746","1.039","0.364","3","396",NA
"143","R_3RjDO4bIMIBqze9","standard","2","47","LP","19.8235243429556","444.757","464.597","465.295","20.538","0.698","3","399",NA
"144","R_3RjDO4bIMIBqze9","standard","2","48","LP","1.25738905644119","466.313","467.589","468.228","1.915","0.639","3","402",NA
"145","R_3RjDO4bIMIBqze9","standard","2","49","LP","13.0392072382594","469.233","482.289","482.928","13.695","0.639","3","405",NA
"146","R_3RjDO4bIMIBqze9","standard","2","50","LP","0.264713485566566","483.941","484.219","484.719","0.778","0.5","3","408",NA
"147","R_3RjDO4bIMIBqze9","standard","2","51","LP","0.264713485566566","485.722","485.998","486.469","0.747","0.471","3","411",NA
"148","R_3RjDO4bIMIBqze9","standard","2","52","LP","2.15079707022835","487.491","489.65","490.184","2.693","0.534","3","414",NA
"149","R_3RjDO4bIMIBqze9","standard","2","53","LP","3.49090909090909","491.203","494.704","495.208","4.005","0.504","3","417",NA
"150","R_3RjDO4bIMIBqze9","standard","2","54","LP","0.264713485566566","496.222","496.497","496.962","0.74","0.465","3","420",NA
"151","R_3RjDO4bIMIBqze9","standard","2","55","LP","19.8235243429556","497.969","NaN","513.352","15.383","NaN","0","420",NA
"152","R_3RjDO4bIMIBqze9","standard","2","56","LP","8.51632916846187","514.359","NaN","521.649","7.29","NaN","0","420",NA
"153","R_3RjDO4bIMIBqze9","standard","2","57","LP","8.51632916846187","522.656","531.189","531.559","8.903","0.37","3","423",NA
"154","R_3RjDO4bIMIBqze9","standard","2","58","LP","2.15079707022835","532.574","534.729","535.178","2.604","0.449","3","426",NA
"155","R_3RjDO4bIMIBqze9","standard","2","59","LP","3.49090909090909","536.189","539.69","540.278","4.089","0.588","3","429",NA
"156","R_3RjDO4bIMIBqze9","standard","2","60","LP","19.8235243429556","541.298","NaN","557.149","15.851","NaN","0","429",NA
"157","R_3RjDO4bIMIBqze9","standard","2","61","LP","30","558.153","NaN","568.819","10.666","NaN","0","429",NA
"158","R_3RjDO4bIMIBqze9","standard","2","62","LP","0.264713485566566","569.823","570.105","570.651","0.828","0.546","3","432",NA
"159","R_3RjDO4bIMIBqze9","standard","2","63","LP","0.264713485566566","571.655","571.93","572.358","0.703","0.428","3","435",NA
"160","R_3RjDO4bIMIBqze9","standard","2","64","LP","2.15079707022835","573.362","575.515","575.709","2.347","0.194","3","438",NA
"161","R_3RjDO4bIMIBqze9","standard","2","65","LP","1.25738905644119","576.716","577.985","578.366","1.65","0.381","3","441",NA
"162","R_3RjDO4bIMIBqze9","standard","2","66","LP","1.25738905644119","579.377","580.645","581.064","1.687","0.419","3","444",NA
"163","R_3RjDO4bIMIBqze9","standard","2","67","LP","13.0392072382594","582.068","NaN","584.821","2.753","NaN","0","444",NA
"164","R_3RjDO4bIMIBqze9","standard","2","68","LP","8.51632916846187","585.823","NaN","589.423","3.6","NaN","0","444",NA
"165","R_3RjDO4bIMIBqze9","standard","2","69","LP","3.49090909090909","590.433","NaN","593.644","3.211","NaN","0","444",NA
"166","R_3RjDO4bIMIBqze9","standard","2","70","LP","19.8235243429556","594.647","NaN","598.263","3.616","NaN","0","444",NA
