"","subject_id","condition","n_block","n_trialIdx","f_timing_condition","n_scheduled_delay","n_trial_start_time","n_rewarded_time_fin","n_sell_time_fin","n_time_waited_fin","RT_fin","n_trial_earnings_fin","n_total_earnings_fin","keypress_times"
"1","R_4GdBsgUbrSyRpSh","standard","1","1","HP","10","0.001","10.011","10.378","10.377","0.367","3","3",""
"2","R_4GdBsgUbrSyRpSh","standard","1","2","HP","14","11.386","25.393","25.746","14.36","0.353","3","6",""
"3","R_4GdBsgUbrSyRpSh","standard","1","3","HP","20","26.755","46.763","47.087","20.332","0.324","3","9",""
"4","R_4GdBsgUbrSyRpSh","standard","1","4","HP","6","48.1","54.107","54.621","6.521","0.514","3","12",""
"5","R_4GdBsgUbrSyRpSh","standard","1","5","HP","18","55.625","73.625","73.984","18.359","0.359","3","15",""
"6","R_4GdBsgUbrSyRpSh","standard","1","6","HP","4","74.99","78.998","79.457","4.467","0.459","3","18",""
"7","R_4GdBsgUbrSyRpSh","standard","1","7","HP","12","80.466","92.473","92.771","12.305","0.298","3","21",""
"8","R_4GdBsgUbrSyRpSh","standard","1","8","HP","2","93.776","95.784","96.072","2.296","0.288","3","24",""
"9","R_4GdBsgUbrSyRpSh","standard","1","9","HP","2","97.079","99.089","99.451","2.372","0.362","3","27",""
"10","R_4GdBsgUbrSyRpSh","standard","1","10","HP","20","100.457","120.459","120.852","20.395","0.393","3","30",""
"11","R_4GdBsgUbrSyRpSh","standard","1","11","HP","10","121.861","131.87","132.3","10.439","0.43","3","33",""
"12","R_4GdBsgUbrSyRpSh","standard","1","12","HP","4","133.302","137.307","137.689","4.387","0.382","3","36",""
"13","R_4GdBsgUbrSyRpSh","standard","1","13","HP","16","138.695","154.698","155.066","16.371","0.368","3","39",""
"14","R_4GdBsgUbrSyRpSh","standard","1","14","HP","8","156.075","164.084","164.455","8.38","0.371","3","42",""
"15","R_4GdBsgUbrSyRpSh","standard","1","15","HP","14","165.462","179.469","179.868","14.406","0.399","3","45",""
"16","R_4GdBsgUbrSyRpSh","standard","1","16","HP","6","180.876","186.881","187.409","6.533","0.528","3","48",""
"17","R_4GdBsgUbrSyRpSh","standard","1","17","HP","8","188.418","196.423","196.804","8.386","0.381","3","51",""
"18","R_4GdBsgUbrSyRpSh","standard","1","18","HP","14","197.805","211.808","212.202","14.397","0.394","3","54",""
"19","R_4GdBsgUbrSyRpSh","standard","1","19","HP","6","213.204","219.207","219.698","6.494","0.491","3","57",""
"20","R_4GdBsgUbrSyRpSh","standard","1","20","HP","12","220.704","232.704","233.065","12.361","0.361","3","60",""
"21","R_4GdBsgUbrSyRpSh","standard","1","21","HP","2","234.071","236.083","236.984","2.913","0.901","3","63",""
"22","R_4GdBsgUbrSyRpSh","standard","1","22","HP","18","237.995","255.998","256.383","18.388","0.385","3","66",""
"23","R_4GdBsgUbrSyRpSh","standard","1","23","HP","10","257.384","267.39","267.761","10.377","0.371","3","69",""
"24","R_4GdBsgUbrSyRpSh","standard","1","24","HP","12","268.767","280.773","281.157","12.39","0.384","3","72",""
"25","R_4GdBsgUbrSyRpSh","standard","1","25","HP","16","282.169","298.176","298.555","16.386","0.379","3","75",""
"26","R_4GdBsgUbrSyRpSh","standard","1","26","HP","14","299.568","313.573","313.936","14.368","0.363","3","78",""
"27","R_4GdBsgUbrSyRpSh","standard","1","27","HP","12","314.94","326.947","327.395","12.455","0.448","3","81",""
"28","R_4GdBsgUbrSyRpSh","standard","1","28","HP","8","328.404","336.41","336.798","8.394","0.388","3","84",""
"29","R_4GdBsgUbrSyRpSh","standard","1","29","HP","12","337.802","349.81","350.235","12.433","0.425","3","87",""
"30","R_4GdBsgUbrSyRpSh","standard","1","30","HP","12","351.244","363.314","363.779","12.535","0.465","3","90",""
"31","R_4GdBsgUbrSyRpSh","standard","1","31","HP","18","364.783","382.791","383.212","18.429","0.421","3","93",""
"32","R_4GdBsgUbrSyRpSh","standard","1","32","HP","8","384.219","392.222","392.805","8.586","0.583","3","96",""
"33","R_4GdBsgUbrSyRpSh","standard","1","33","HP","20","393.807","413.814","414.242","20.435","0.428","3","99",""
"34","R_4GdBsgUbrSyRpSh","standard","1","34","HP","4","415.248","419.254","419.677","4.429","0.423","3","102",""
"35","R_4GdBsgUbrSyRpSh","standard","1","35","HP","14","420.689","434.697","435.151","14.462","0.454","3","105",""
"36","R_4GdBsgUbrSyRpSh","standard","1","36","HP","12","436.151","448.153","448.562","12.411","0.409","3","108",""
"37","R_4GdBsgUbrSyRpSh","standard","1","37","HP","18","449.564","467.564","468.027","18.463","0.463","3","111",""
"38","R_4GdBsgUbrSyRpSh","standard","1","38","HP","10","469.031","479.036","479.46","10.429","0.424","3","114",""
"39","R_4GdBsgUbrSyRpSh","standard","1","39","HP","14","480.463","494.464","494.91","14.447","0.446","3","117",""
"40","R_4GdBsgUbrSyRpSh","standard","1","40","HP","14","495.918","509.924","510.391","14.473","0.467","3","120",""
"41","R_4GdBsgUbrSyRpSh","standard","1","41","HP","4","511.397","515.406","515.857","4.46","0.451","3","123",""
"42","R_4GdBsgUbrSyRpSh","standard","1","42","HP","10","516.86","526.865","527.223","10.363","0.358","3","126",""
"43","R_4GdBsgUbrSyRpSh","standard","1","43","HP","2","528.231","530.235","530.697","2.466","0.462","3","129",""
"44","R_4GdBsgUbrSyRpSh","standard","1","44","HP","20","531.701","551.709","552.523","20.822","0.814","3","129","19425"
"45","R_4GdBsgUbrSyRpSh","standard","1","45","HP","6","553.528","559.533","559.953","6.425","0.42","3","132",""
"46","R_4GdBsgUbrSyRpSh","standard","1","46","HP","6","560.955","566.962","567.409","6.454","0.447","3","135",""
"47","R_4GdBsgUbrSyRpSh","standard","1","47","HP","16","568.422","584.43","584.987","16.565","0.557","3","135","15626"
"48","R_4GdBsgUbrSyRpSh","standard","1","48","HP","12","585.997","598.005","598.445","12.448","0.44","3","138",""
"49","R_4GdBsgUbrSyRpSh","standard","1","49","HP","20","599.447","619.451","619.846","20.399","0.395","3","141",""
"50","R_4GdBsgUbrSyRpSh","standard","1","50","HP","4","620.852","624.856","625.344","4.492","0.488","3","144",""
"51","R_4GdBsgUbrSyRpSh","standard","1","51","HP","20","626.347","646.348","646.736","20.389","0.388","3","147",""
"52","R_4GdBsgUbrSyRpSh","standard","1","52","HP","10","647.748","657.752","NA","11.012","NA","0","147",""
"53","R_4GdBsgUbrSyRpSh","standard","1","53","HP","16","659.761","675.768","676.221","16.46","0.453","3","150",""
"54","R_4GdBsgUbrSyRpSh","standard","1","54","HP","18","677.224","695.23","695.614","18.39","0.384","3","153",""
"55","R_4GdBsgUbrSyRpSh","standard","1","55","HP","12","696.623","708.63","709.016","12.393","0.386","3","156",""
"56","R_4GdBsgUbrSyRpSh","standard","1","56","HP","2","710.026","712.032","712.501","2.475","0.469","3","159",""
"57","R_4GdBsgUbrSyRpSh","standard","1","57","HP","6","713.505","719.514","719.936","6.431","0.422","3","162",""
"58","R_4GdBsgUbrSyRpSh","standard","1","58","HP","16","720.946","736.946","737.352","16.406","0.406","3","165",""
"59","R_4GdBsgUbrSyRpSh","standard","1","59","HP","4","738.36","742.365","742.874","4.514","0.509","3","168",""
"60","R_4GdBsgUbrSyRpSh","standard","1","60","HP","18","743.88","761.888","762.336","18.456","0.448","3","171",""
"61","R_4GdBsgUbrSyRpSh","standard","1","61","HP","6","763.345","769.347","769.823","6.478","0.476","3","174",""
"62","R_4GdBsgUbrSyRpSh","standard","1","62","HP","6","770.83","776.84","777.343","6.513","0.503","3","177",""
"63","R_4GdBsgUbrSyRpSh","standard","1","63","HP","8","778.345","786.348","786.842","8.497","0.494","3","180",""
"64","R_4GdBsgUbrSyRpSh","standard","1","64","HP","8","787.845","795.848","796.229","8.384","0.381","3","183",""
"65","R_4GdBsgUbrSyRpSh","standard","1","65","HP","16","797.238","813.247","813.69","16.452","0.443","3","186",""
"66","R_4GdBsgUbrSyRpSh","standard","1","66","HP","14","814.692","828.701","829.08","14.388","0.379","3","189",""
"67","R_4GdBsgUbrSyRpSh","standard","1","67","HP","20","830.088","850.095","850.473","20.385","0.378","3","189","11686"
"68","R_4GdBsgUbrSyRpSh","standard","1","68","HP","4","851.476","855.487","855.877","4.401","0.39","3","192",""
"69","R_4GdBsgUbrSyRpSh","standard","1","69","HP","8","856.882","864.892","865.341","8.459","0.449","3","195",""
"70","R_4GdBsgUbrSyRpSh","standard","1","70","HP","6","866.347","872.355","872.799","6.452","0.444","3","198",""
"71","R_4GdBsgUbrSyRpSh","standard","1","71","HP","6","873.805","879.813","880.211","6.406","0.398","3","201",""
"72","R_4GdBsgUbrSyRpSh","standard","1","72","HP","10","881.218","891.23","891.591","10.373","0.361","3","204",""
"73","R_4GdBsgUbrSyRpSh","standard","2","1","LP","19.8235243429556","0","NaN","5.215","5.215","NaN","0","204",NA
"74","R_4GdBsgUbrSyRpSh","standard","2","2","LP","1.25738905644119","6.217","7.481","8.272","2.055","0.791","3","207",NA
"75","R_4GdBsgUbrSyRpSh","standard","2","3","LP","3.49090909090909","9.277","12.772","13.24","3.963","0.468","3","210",NA
"76","R_4GdBsgUbrSyRpSh","standard","2","4","LP","8.51632916846187","14.253","NaN","21.936","7.683","NaN","0","210",NA
"77","R_4GdBsgUbrSyRpSh","standard","2","5","LP","30","22.947","NaN","27.905","4.958","NaN","0","210",NA
"78","R_4GdBsgUbrSyRpSh","standard","2","6","LP","19.8235243429556","28.909","NaN","37.585","8.676","NaN","0","210",NA
"79","R_4GdBsgUbrSyRpSh","standard","2","7","LP","19.8235243429556","38.596","NaN","43.462","4.866","NaN","0","210",NA
"80","R_4GdBsgUbrSyRpSh","standard","2","8","LP","13.0392072382594","44.464","57.505","57.923","13.459","0.418","3","213",NA
"81","R_4GdBsgUbrSyRpSh","standard","2","9","LP","19.8235243429556","58.928","NaN","77.094","18.166","NaN","0","213",NA
"82","R_4GdBsgUbrSyRpSh","standard","2","10","LP","1.25738905644119","78.099","79.362","79.809","1.71","0.447","3","216",NA
"83","R_4GdBsgUbrSyRpSh","standard","2","11","LP","0.661783713916415","80.811","81.48","81.897","1.086","0.417","3","219",NA
"84","R_4GdBsgUbrSyRpSh","standard","2","12","LP","3.49090909090909","82.903","86.403","86.841","3.938","0.438","3","222",NA
"85","R_4GdBsgUbrSyRpSh","standard","2","13","LP","5.5010771219302","87.847","93.351","93.785","5.938","0.434","3","225",NA
"86","R_4GdBsgUbrSyRpSh","standard","2","14","LP","2.15079707022835","94.791","96.947","97.418","2.627","0.471","3","228",NA
"87","R_4GdBsgUbrSyRpSh","standard","2","15","LP","1.25738905644119","98.422","99.689","100.116","1.694","0.427","3","231",NA
"88","R_4GdBsgUbrSyRpSh","standard","2","16","LP","3.49090909090909","101.118","104.61","105.005","3.887","0.395","3","234",NA
"89","R_4GdBsgUbrSyRpSh","standard","2","17","LP","8.51632916846187","106.01","114.531","114.929","8.919","0.398","3","237",NA
"90","R_4GdBsgUbrSyRpSh","standard","2","18","LP","2.15079707022835","115.936","118.098","118.434","2.498","0.336","3","240",NA
"91","R_4GdBsgUbrSyRpSh","standard","2","19","LP","5.5010771219302","119.436","124.945","125.349","5.913","0.404","3","243",NA
"92","R_4GdBsgUbrSyRpSh","standard","2","20","LP","0.661783713916415","126.36","127.022","127.578","1.218","0.556","3","246",NA
"93","R_4GdBsgUbrSyRpSh","standard","2","21","LP","0.264713485566566","128.585","128.855","129.318","0.733","0.463","3","249",NA
"94","R_4GdBsgUbrSyRpSh","standard","2","22","LP","3.49090909090909","130.323","133.822","134.233","3.91","0.411","3","252",NA
"95","R_4GdBsgUbrSyRpSh","standard","2","23","LP","0.661783713916415","135.238","135.902","136.35","1.112","0.448","3","255",NA
"96","R_4GdBsgUbrSyRpSh","standard","2","24","LP","19.8235243429556","137.358","NaN","148.964","11.606","NaN","0","255",NA
"97","R_4GdBsgUbrSyRpSh","standard","2","25","LP","3.49090909090909","149.966","153.463","153.894","3.928","0.431","3","258",NA
"98","R_4GdBsgUbrSyRpSh","standard","2","26","LP","3.49090909090909","154.904","158.398","158.844","3.94","0.446","3","261",NA
"99","R_4GdBsgUbrSyRpSh","standard","2","27","LP","13.0392072382594","159.848","NaN","169.906","10.058","NaN","0","261",NA
"100","R_4GdBsgUbrSyRpSh","standard","2","28","LP","8.51632916846187","170.908","179.43","179.837","8.929","0.407","3","264",NA
"101","R_4GdBsgUbrSyRpSh","standard","2","29","LP","13.0392072382594","180.846","NaN","190.311","9.465","NaN","0","264",NA
"102","R_4GdBsgUbrSyRpSh","standard","2","30","LP","13.0392072382594","191.318","NaN","197.274","5.956","NaN","0","264",NA
"103","R_4GdBsgUbrSyRpSh","standard","2","31","LP","30","198.28","NaN","204.517","6.237","NaN","0","264",NA
"104","R_4GdBsgUbrSyRpSh","standard","2","32","LP","0.264713485566566","205.523","205.796","206.268","0.745","0.472","3","267",NA
"105","R_4GdBsgUbrSyRpSh","standard","2","33","LP","8.51632916846187","207.28","NaN","212.477","5.197","NaN","0","267",NA
"106","R_4GdBsgUbrSyRpSh","standard","2","34","LP","5.5010771219302","213.487","NaN","217.365","3.878","NaN","0","267",NA
"107","R_4GdBsgUbrSyRpSh","standard","2","35","LP","8.51632916846187","218.372","NaN","222.699","4.327","NaN","0","267",NA
"108","R_4GdBsgUbrSyRpSh","standard","2","36","LP","0.264713485566566","223.704","223.973","224.359","0.655","0.386","3","270",NA
"109","R_4GdBsgUbrSyRpSh","standard","2","37","LP","1.25738905644119","225.363","226.623","227.007","1.644","0.384","3","273",NA
"110","R_4GdBsgUbrSyRpSh","standard","2","38","LP","2.15079707022835","228.011","230.163","230.532","2.521","0.369","3","276",NA
"111","R_4GdBsgUbrSyRpSh","standard","2","39","LP","5.5010771219302","231.539","NaN","236.512","4.973","NaN","0","276",NA
"112","R_4GdBsgUbrSyRpSh","standard","2","40","LP","19.8235243429556","237.517","NaN","240.128","2.611","NaN","0","276",NA
"113","R_4GdBsgUbrSyRpSh","standard","2","41","LP","8.51632916846187","241.131","NaN","245.97","4.839","NaN","0","276",NA
"114","R_4GdBsgUbrSyRpSh","standard","2","42","LP","13.0392072382594","246.983","NaN","249.845","2.862","NaN","0","276",NA
"115","R_4GdBsgUbrSyRpSh","standard","2","43","LP","8.51632916846187","250.855","NaN","255.398","4.543","NaN","0","276",NA
"116","R_4GdBsgUbrSyRpSh","standard","2","44","LP","2.15079707022835","256.407","258.563","258.939","2.532","0.376","3","279",NA
"117","R_4GdBsgUbrSyRpSh","standard","2","45","LP","5.5010771219302","259.948","265.455","265.9","5.952","0.445","3","282",NA
"118","R_4GdBsgUbrSyRpSh","standard","2","46","LP","2.15079707022835","266.904","269.058","269.464","2.56","0.406","3","285",NA
"119","R_4GdBsgUbrSyRpSh","standard","2","47","LP","30","270.47","NaN","273.264","2.794","NaN","0","285",NA
"120","R_4GdBsgUbrSyRpSh","standard","2","48","LP","3.49090909090909","274.27","277.763","278.203","3.933","0.44","3","288",NA
"121","R_4GdBsgUbrSyRpSh","standard","2","49","LP","19.8235243429556","279.207","NaN","285.681","6.474","NaN","0","288",NA
"122","R_4GdBsgUbrSyRpSh","standard","2","50","LP","1.25738905644119","286.69","287.955","288.343","1.653","0.388","3","291",NA
"123","R_4GdBsgUbrSyRpSh","standard","2","51","LP","3.49090909090909","289.35","292.846","293.33","3.98","0.484","3","294",NA
"124","R_4GdBsgUbrSyRpSh","standard","2","52","LP","5.5010771219302","294.338","299.845","300.233","5.895","0.388","3","297",NA
"125","R_4GdBsgUbrSyRpSh","standard","2","53","LP","2.15079707022835","301.246","303.405","303.851","2.605","0.446","3","300",NA
"126","R_4GdBsgUbrSyRpSh","standard","2","54","LP","3.49090909090909","304.86","308.356","308.853","3.993","0.497","3","303",NA
"127","R_4GdBsgUbrSyRpSh","standard","2","55","LP","0.264713485566566","309.861","310.13","310.665","0.804","0.535","3","306",NA
"128","R_4GdBsgUbrSyRpSh","standard","2","56","LP","0.264713485566566","311.677","311.946","312.418","0.741","0.472","3","309",NA
"129","R_4GdBsgUbrSyRpSh","standard","2","57","LP","5.5010771219302","313.422","318.931","319.019","5.597","0.088","3","312",NA
"130","R_4GdBsgUbrSyRpSh","standard","2","58","LP","8.51632916846187","320.029","328.555","329.023","8.994","0.468","3","315",NA
"131","R_4GdBsgUbrSyRpSh","standard","2","59","LP","8.51632916846187","330.026","NaN","338.53","8.504","NaN","0","315",NA
"132","R_4GdBsgUbrSyRpSh","standard","2","60","LP","0.264713485566566","339.54","339.805","340.278","0.738","0.473","3","318",NA
"133","R_4GdBsgUbrSyRpSh","standard","2","61","LP","8.51632916846187","341.285","349.801","350.215","8.93","0.414","3","321",NA
"134","R_4GdBsgUbrSyRpSh","standard","2","62","LP","8.51632916846187","351.222","NaN","359.076","7.854","NaN","0","321",NA
"135","R_4GdBsgUbrSyRpSh","standard","2","63","LP","8.51632916846187","360.079","NaN","364.27","4.191","NaN","0","321",NA
"136","R_4GdBsgUbrSyRpSh","standard","2","64","LP","0.264713485566566","365.271","365.546","365.961","0.69","0.415","3","324",NA
"137","R_4GdBsgUbrSyRpSh","standard","2","65","LP","5.5010771219302","366.972","372.482","372.914","5.942","0.432","3","327",NA
"138","R_4GdBsgUbrSyRpSh","standard","2","66","LP","13.0392072382594","373.921","NaN","382.614","8.693","NaN","0","327",NA
"139","R_4GdBsgUbrSyRpSh","standard","2","67","LP","8.51632916846187","383.618","NaN","387.377","3.759","NaN","0","327",NA
"140","R_4GdBsgUbrSyRpSh","standard","2","68","LP","3.49090909090909","388.385","391.879","392.317","3.932","0.438","3","330",NA
"141","R_4GdBsgUbrSyRpSh","standard","2","69","LP","30","393.321","NaN","401.765","8.444","NaN","0","330",NA
"142","R_4GdBsgUbrSyRpSh","standard","2","70","LP","8.51632916846187","402.771","NaN","410.783","8.012","NaN","0","330",NA
"143","R_4GdBsgUbrSyRpSh","standard","2","71","LP","1.25738905644119","411.79","413.057","413.443","1.653","0.386","3","333",NA
"144","R_4GdBsgUbrSyRpSh","standard","2","72","LP","3.49090909090909","414.447","417.946","418.39","3.943","0.444","3","336",NA
"145","R_4GdBsgUbrSyRpSh","standard","2","73","LP","0.661783713916415","419.402","420.073","420.523","1.121","0.45","3","339",NA
"146","R_4GdBsgUbrSyRpSh","standard","2","74","LP","0.264713485566566","421.529","421.803","422.326","0.797","0.523","3","342",NA
"147","R_4GdBsgUbrSyRpSh","standard","2","75","LP","19.8235243429556","423.338","NaN","431.819","8.481","NaN","0","342",NA
"148","R_4GdBsgUbrSyRpSh","standard","2","76","LP","19.8235243429556","432.826","NaN","437.041","4.215","NaN","0","342",NA
"149","R_4GdBsgUbrSyRpSh","standard","2","77","LP","19.8235243429556","438.046","NaN","441.407","3.361","NaN","0","342",NA
"150","R_4GdBsgUbrSyRpSh","standard","2","78","LP","3.49090909090909","442.414","445.905","446.37","3.956","0.465","3","345",NA
"151","R_4GdBsgUbrSyRpSh","standard","2","79","LP","1.25738905644119","447.374","448.638","449.026","1.652","0.388","3","348",NA
"152","R_4GdBsgUbrSyRpSh","standard","2","80","LP","5.5010771219302","450.029","455.538","455.958","5.929","0.42","3","351",NA
"153","R_4GdBsgUbrSyRpSh","standard","2","81","LP","13.0392072382594","456.97","NaN","461.742","4.772","NaN","0","351",NA
"154","R_4GdBsgUbrSyRpSh","standard","2","82","LP","1.25738905644119","462.75","464.013","464.431","1.681","0.418","3","354",NA
"155","R_4GdBsgUbrSyRpSh","standard","2","83","LP","0.661783713916415","465.439","466.105","466.559","1.12","0.454","3","357",NA
"156","R_4GdBsgUbrSyRpSh","standard","2","84","LP","1.25738905644119","467.569","468.833","469.285","1.716","0.452","3","360",NA
"157","R_4GdBsgUbrSyRpSh","standard","2","85","LP","0.264713485566566","470.297","470.567","471.054","0.757","0.487","3","363",NA
"158","R_4GdBsgUbrSyRpSh","standard","2","86","LP","13.0392072382594","472.064","NaN","479.558","7.494","NaN","0","363",NA
"159","R_4GdBsgUbrSyRpSh","standard","2","87","LP","30","480.565","NaN","486.445","5.88","NaN","0","363",NA
"160","R_4GdBsgUbrSyRpSh","standard","2","88","LP","5.5010771219302","487.457","492.969","493.381","5.924","0.412","3","366",NA
"161","R_4GdBsgUbrSyRpSh","standard","2","89","LP","0.264713485566566","494.393","494.662","495.051","0.658","0.389","3","369",NA
"162","R_4GdBsgUbrSyRpSh","standard","2","90","LP","5.5010771219302","496.054","501.569","502.003","5.949","0.434","3","372",NA
"163","R_4GdBsgUbrSyRpSh","standard","2","91","LP","2.15079707022835","503.004","NaN","503.628","0.624","NaN","0","372",NA
"164","R_4GdBsgUbrSyRpSh","standard","2","92","LP","2.15079707022835","504.637","506.8","507.141","2.504","0.341","3","375",NA
"165","R_4GdBsgUbrSyRpSh","standard","2","93","LP","2.15079707022835","508.152","510.306","510.752","2.6","0.446","3","378",NA
"166","R_4GdBsgUbrSyRpSh","standard","2","94","LP","19.8235243429556","511.755","NaN","514.79","3.035","NaN","0","378",NA
"167","R_4GdBsgUbrSyRpSh","standard","2","95","LP","1.25738905644119","515.8","517.062","517.462","1.662","0.4","3","381",NA
"168","R_4GdBsgUbrSyRpSh","standard","2","96","LP","30","518.471","NaN","527.614","9.143","NaN","0","381",NA
"169","R_4GdBsgUbrSyRpSh","standard","2","97","LP","13.0392072382594","528.621","NaN","534.781","6.16","NaN","0","381",NA
"170","R_4GdBsgUbrSyRpSh","standard","2","98","LP","30","535.789","NaN","540.334","4.545","NaN","0","381",NA
"171","R_4GdBsgUbrSyRpSh","standard","2","99","LP","2.15079707022835","541.342","543.496","543.894","2.552","0.398","3","384",NA
"172","R_4GdBsgUbrSyRpSh","standard","2","100","LP","1.25738905644119","544.9","546.164","546.582","1.682","0.418","3","387",NA
"173","R_4GdBsgUbrSyRpSh","standard","2","101","LP","2.15079707022835","547.591","549.748","550.153","2.562","0.405","3","390",NA
"174","R_4GdBsgUbrSyRpSh","standard","2","102","LP","8.51632916846187","551.159","NaN","558.141","6.982","NaN","0","390",NA
"175","R_4GdBsgUbrSyRpSh","standard","2","103","LP","13.0392072382594","559.151","NaN","560.822","1.671","NaN","0","390",NA
"176","R_4GdBsgUbrSyRpSh","standard","2","104","LP","30","561.829","NaN","564.327","2.498","NaN","0","390",NA
"177","R_4GdBsgUbrSyRpSh","standard","2","105","LP","0.264713485566566","565.334","565.599","566.004","0.67","0.405","3","393",NA
"178","R_4GdBsgUbrSyRpSh","standard","2","106","LP","19.8235243429556","567.004","NaN","573.533","6.529","NaN","0","393",NA
"179","R_4GdBsgUbrSyRpSh","standard","2","107","LP","8.51632916846187","574.539","NaN","579.264","4.725","NaN","0","393",NA
"180","R_4GdBsgUbrSyRpSh","standard","2","108","LP","2.15079707022835","580.271","582.429","582.936","2.665","0.507","3","396",NA
"181","R_4GdBsgUbrSyRpSh","standard","2","109","LP","0.264713485566566","583.943","584.212","584.62","0.677","0.408","3","399",NA
"182","R_4GdBsgUbrSyRpSh","standard","2","110","LP","1.25738905644119","585.629","586.891","587.853","2.224","0.962","3","402",NA
