"","subject_id","condition","n_block","n_trialIdx","f_timing_condition","n_scheduled_delay","n_trial_start_time","n_rewarded_time_fin","n_sell_time_fin","n_time_waited_fin","RT_fin","n_trial_earnings_fin","n_total_earnings_fin","keypress_times"
"1","R_4VddvNyYLDq9h8l","standard","1","1","HP","18","0.001","18.006","18.839","18.838","0.833","3","3",""
"2","R_4VddvNyYLDq9h8l","standard","1","2","HP","10","19.845","29.846","NA","11.011","NA","0","0","9130"
"3","R_4VddvNyYLDq9h8l","standard","1","3","HP","16","31.862","47.884","48.626","16.764","0.742","3","3",""
"4","R_4VddvNyYLDq9h8l","standard","1","4","HP","12","49.626","61.629","62.489","12.863","0.86","3","6",""
"5","R_4VddvNyYLDq9h8l","standard","1","5","HP","6","63.493","69.509","70.429","6.936","0.92","3","9",""
"6","R_4VddvNyYLDq9h8l","standard","1","6","HP","16","71.43","87.438","88.159","16.729","0.721","3","12",""
"7","R_4VddvNyYLDq9h8l","standard","1","7","HP","14","89.165","103.173","103.925","14.76","0.752","3","15",""
"8","R_4VddvNyYLDq9h8l","standard","1","8","HP","10","104.93","114.934","115.79","10.86","0.856","3","18",""
"9","R_4VddvNyYLDq9h8l","standard","1","9","HP","12","116.802","128.804","129.663","12.861","0.859","3","21",""
"10","R_4VddvNyYLDq9h8l","standard","1","10","HP","6","130.669","136.685","NA","7.026","NA","0","21",""
"11","R_4VddvNyYLDq9h8l","standard","1","11","HP","14","138.701","152.703","153.519","14.818","0.816","3","24",""
"12","R_4VddvNyYLDq9h8l","standard","1","12","HP","12","154.52","166.524","167.291","12.771","0.767","3","27",""
"13","R_4VddvNyYLDq9h8l","standard","1","13","HP","4","168.304","172.308","NA","5.006","NA","0","27",""
"14","R_4VddvNyYLDq9h8l","standard","1","14","HP","4","174.317","178.32","179.168","4.851","0.848","3","27","658"
"15","R_4VddvNyYLDq9h8l","standard","1","15","HP","8","180.186","188.195","188.987","8.801","0.792","3","30",""
"16","R_4VddvNyYLDq9h8l","standard","1","16","HP","10","189.999","200.006","200.884","10.885","0.878","3","33",""
"17","R_4VddvNyYLDq9h8l","standard","1","17","HP","10","201.9","211.915","212.746","10.846","0.831","3","36",""
"18","R_4VddvNyYLDq9h8l","standard","1","18","HP","8","213.748","221.748","NA","9.001","NA","0","36",""
"19","R_4VddvNyYLDq9h8l","standard","1","19","HP","20","223.756","243.766","244.73","20.974","0.964","3","39",""
"20","R_4VddvNyYLDq9h8l","standard","1","20","HP","4","245.734","249.745","NA","5.016","NA","0","39",""
"21","R_4VddvNyYLDq9h8l","standard","1","21","HP","12","251.758","263.766","264.521","12.763","0.755","3","42",""
"22","R_4VddvNyYLDq9h8l","standard","1","22","HP","4","265.525","269.526","270.458","4.933","0.932","3","45",""
"23","R_4VddvNyYLDq9h8l","standard","1","23","HP","2","271.461","273.461","274.427","2.966","0.966","3","48",""
"24","R_4VddvNyYLDq9h8l","standard","1","24","HP","6","275.43","281.431","282.306","6.876","0.875","3","48","3758"
"25","R_4VddvNyYLDq9h8l","standard","1","25","HP","4","283.31","287.31","288.143","4.833","0.833","3","51",""
"26","R_4VddvNyYLDq9h8l","standard","1","26","HP","4","289.15","293.159","294.012","4.862","0.853","3","54",""
"27","R_4VddvNyYLDq9h8l","standard","1","27","HP","2","295.014","297.016","NA","3.003","NA","0","54",""
"28","R_4VddvNyYLDq9h8l","standard","1","28","HP","20","299.022","319.03","319.754","20.732","0.724","3","57",""
"29","R_4VddvNyYLDq9h8l","standard","1","29","HP","10","320.765","330.774","NA","11.032","NA","0","57",""
"30","R_4VddvNyYLDq9h8l","standard","1","30","HP","20","332.806","352.821","NA","21.015","NA","0","57",""
"31","R_4VddvNyYLDq9h8l","standard","1","31","HP","12","354.821","366.822","NA","13.008","NA","0","57",""
"32","R_4VddvNyYLDq9h8l","standard","1","32","HP","8","368.829","376.829","NA","9.002","NA","0","57",""
"33","R_4VddvNyYLDq9h8l","standard","1","33","HP","12","378.861","390.87","NA","13.017","NA","0","57",""
"34","R_4VddvNyYLDq9h8l","standard","1","34","HP","18","392.887","410.894","NA","19.015","NA","0","57",""
"35","R_4VddvNyYLDq9h8l","standard","1","35","HP","12","412.902","424.902","NA","13.001","NA","0","57",""
"36","R_4VddvNyYLDq9h8l","standard","1","36","HP","14","426.903","440.91","NA","15.017","NA","0","57",""
"37","R_4VddvNyYLDq9h8l","standard","1","37","HP","14","442.926","456.934","NA","15.015","NA","0","57",""
"38","R_4VddvNyYLDq9h8l","standard","1","38","HP","8","458.942","466.95","NA","9.016","NA","0","57",""
"39","R_4VddvNyYLDq9h8l","standard","1","39","HP","10","468.973","478.994","NA","11.025","NA","0","57",""
"40","R_4VddvNyYLDq9h8l","standard","1","40","HP","20","481.005","501.009","NA","21.015","NA","0","57",""
"41","R_4VddvNyYLDq9h8l","standard","1","41","HP","14","503.025","517.029","NA","15.012","NA","0","57",""
"42","R_4VddvNyYLDq9h8l","standard","1","42","HP","14","519.044","533.045","NA","15.009","NA","0","57",""
"43","R_4VddvNyYLDq9h8l","standard","1","43","HP","20","535.071","555.076","NA","21.006","NA","0","57",""
"44","R_4VddvNyYLDq9h8l","standard","1","44","HP","10","557.084","567.102","NA","11.026","NA","0","57",""
"45","R_4VddvNyYLDq9h8l","standard","1","45","HP","10","569.116","579.117","NA","11.005","NA","0","57",""
"46","R_4VddvNyYLDq9h8l","standard","1","46","HP","20","581.124","601.126","NA","21.009","NA","0","57",""
"47","R_4VddvNyYLDq9h8l","standard","1","47","HP","6","603.139","609.142","NA","7.011","NA","0","57",""
"48","R_4VddvNyYLDq9h8l","standard","1","48","HP","20","611.168","631.174","NA","21.015","NA","0","57",""
"49","R_4VddvNyYLDq9h8l","standard","1","49","HP","14","633.189","647.197","NA","15.01","NA","0","57",""
"50","R_4VddvNyYLDq9h8l","standard","1","50","HP","8","649.21","657.297","NA","9.093","NA","0","57",""
"51","R_4VddvNyYLDq9h8l","standard","1","51","HP","16","659.314","675.315","NA","17.003","NA","0","57",""
"52","R_4VddvNyYLDq9h8l","standard","1","52","HP","2","677.317","679.317","NA","3","NA","0","57",""
"53","R_4VddvNyYLDq9h8l","standard","1","53","HP","12","681.317","693.319","NA","13.008","NA","0","57",""
"54","R_4VddvNyYLDq9h8l","standard","1","54","HP","20","695.326","715.334","NA","21.016","NA","0","57",""
"55","R_4VddvNyYLDq9h8l","standard","1","55","HP","16","717.349","733.35","NA","17.015","NA","0","57",""
"56","R_4VddvNyYLDq9h8l","standard","1","56","HP","18","735.378","753.382","NA","19.013","NA","0","57",""
"57","R_4VddvNyYLDq9h8l","standard","1","57","HP","14","755.398","769.416","NA","15.02","NA","0","57",""
"58","R_4VddvNyYLDq9h8l","standard","1","58","HP","8","771.422","779.429","NA","9.009","NA","0","57",""
"59","R_4VddvNyYLDq9h8l","standard","1","59","HP","4","781.436","785.437","NA","5.002","NA","0","57",""
"60","R_4VddvNyYLDq9h8l","standard","1","60","HP","18","787.458","805.46","NA","19.004","NA","0","57",""
"61","R_4VddvNyYLDq9h8l","standard","1","61","HP","18","807.469","825.491","NA","19.084","NA","0","57",""
"62","R_4VddvNyYLDq9h8l","standard","1","62","HP","2","827.557","829.565","NA","3.019","NA","0","57",""
"63","R_4VddvNyYLDq9h8l","standard","1","63","HP","4","831.581","835.589","NA","5.026","NA","0","57",""
"64","R_4VddvNyYLDq9h8l","standard","1","64","HP","8","837.612","845.612","NA","9.001","NA","0","57",""
"65","R_4VddvNyYLDq9h8l","standard","1","65","HP","18","847.621","865.625","NA","19.007","NA","0","57",""
"66","R_4VddvNyYLDq9h8l","standard","1","66","HP","6","867.628","873.629","874.567","6.939","0.938","3","60",""
"67","R_4VddvNyYLDq9h8l","standard","1","67","HP","14","875.573","889.581","NA","15.033","NA","0","60",""
"68","R_4VddvNyYLDq9h8l","standard","2","1","LP","13.0392072382594","0","13.047",NA,"14.048",NA,"0","60",NA
"69","R_4VddvNyYLDq9h8l","standard","2","2","LP","8.51632916846187","15.056","NaN","15.102","0.046","NaN","0","60",NA
"70","R_4VddvNyYLDq9h8l","standard","2","3","LP","0.661783713916415","16.111","16.795","17.595","1.484","0.8","3","63",NA
"71","R_4VddvNyYLDq9h8l","standard","2","4","LP","1.25738905644119","18.608","19.879",NA,"2.271",NA,"0","63",NA
"72","R_4VddvNyYLDq9h8l","standard","2","5","LP","0.264713485566566","21.879","22.144","22.863","0.984","0.719","3","66",NA
"73","R_4VddvNyYLDq9h8l","standard","2","6","LP","5.5010771219302","23.863","29.368","30.139","6.276","0.771","3","69",NA
"74","R_4VddvNyYLDq9h8l","standard","2","7","LP","3.49090909090909","31.145","34.64","35.462","4.317","0.822","3","72",NA
"75","R_4VddvNyYLDq9h8l","standard","2","8","LP","3.49090909090909","36.464","39.963","40.699","4.235","0.736","3","75",NA
"76","R_4VddvNyYLDq9h8l","standard","2","9","LP","30","41.717","NaN","59.592","17.875","NaN","0","75",NA
"77","R_4VddvNyYLDq9h8l","standard","2","10","LP","2.15079707022835","60.605","62.758","63.748","3.143","0.99","3","78",NA
"78","R_4VddvNyYLDq9h8l","standard","2","11","LP","13.0392072382594","64.751","NaN","67.104","2.353","NaN","0","78",NA
"79","R_4VddvNyYLDq9h8l","standard","2","12","LP","8.51632916846187","68.109","NaN","72.619","4.51","NaN","0","78",NA
"80","R_4VddvNyYLDq9h8l","standard","2","13","LP","1.25738905644119","73.624","74.893",NA,"2.286",NA,"0","78",NA
"81","R_4VddvNyYLDq9h8l","standard","2","14","LP","19.8235243429556","76.912","NaN","91.917","15.005","NaN","0","78",NA
"82","R_4VddvNyYLDq9h8l","standard","2","15","LP","5.5010771219302","92.919","NaN","95.197","2.278","NaN","0","78",NA
"83","R_4VddvNyYLDq9h8l","standard","2","16","LP","30","96.207","NaN","124.314","28.107","NaN","0","78",NA
"84","R_4VddvNyYLDq9h8l","standard","2","17","LP","13.0392072382594","125.331","NaN","127.062","1.731","NaN","0","78",NA
"85","R_4VddvNyYLDq9h8l","standard","2","18","LP","30","128.064","NaN","129.568","1.504","NaN","0","78",NA
"86","R_4VddvNyYLDq9h8l","standard","2","19","LP","13.0392072382594","130.575","NaN","132.337","1.762","NaN","0","78",NA
"87","R_4VddvNyYLDq9h8l","standard","2","20","LP","2.15079707022835","133.344","135.506","136.199","2.855","0.693","3","81",NA
"88","R_4VddvNyYLDq9h8l","standard","2","21","LP","5.5010771219302","137.202","NaN","139.12","1.918","NaN","0","81",NA
"89","R_4VddvNyYLDq9h8l","standard","2","22","LP","1.25738905644119","140.126","NaN","141.325","1.199","NaN","0","81",NA
"90","R_4VddvNyYLDq9h8l","standard","2","23","LP","5.5010771219302","142.327","NaN","143.761","1.434","NaN","0","81",NA
"91","R_4VddvNyYLDq9h8l","standard","2","24","LP","19.8235243429556","144.768","NaN","147.809","3.041","NaN","0","81",NA
"92","R_4VddvNyYLDq9h8l","standard","2","25","LP","0.661783713916415","148.818","149.48",NA,"1.682",NA,"0","81",NA
"93","R_4VddvNyYLDq9h8l","standard","2","26","LP","8.51632916846187","151.506","NaN","152.678","1.172","NaN","0","81",NA
"94","R_4VddvNyYLDq9h8l","standard","2","27","LP","5.5010771219302","153.692","NaN","157.122","3.43","NaN","0","81",NA
"95","R_4VddvNyYLDq9h8l","standard","2","28","LP","19.8235243429556","158.127","NaN","166.378","8.251","NaN","0","81",NA
"96","R_4VddvNyYLDq9h8l","standard","2","29","LP","2.15079707022835","167.383","NaN","167.857","0.474","NaN","0","81",NA
"97","R_4VddvNyYLDq9h8l","standard","2","30","LP","2.15079707022835","168.874","171.025",NA,"3.151",NA,"0","81",NA
"98","R_4VddvNyYLDq9h8l","standard","2","31","LP","2.15079707022835","173.027","175.19",NA,"3.178",NA,"0","81",NA
"99","R_4VddvNyYLDq9h8l","standard","2","32","LP","19.8235243429556","177.219","NaN","189.982","12.763","NaN","0","81",NA
"100","R_4VddvNyYLDq9h8l","standard","2","33","LP","13.0392072382594","190.983","NaN","193.455","2.472","NaN","0","81",NA
"101","R_4VddvNyYLDq9h8l","standard","2","34","LP","0.264713485566566","194.456","194.726",NA,"1.272",NA,"0","81",NA
"102","R_4VddvNyYLDq9h8l","standard","2","35","LP","2.15079707022835","196.736","198.901",NA,"3.17",NA,"0","81",NA
"103","R_4VddvNyYLDq9h8l","standard","2","36","LP","2.15079707022835","200.906","NaN","202.884","1.978","NaN","0","81",NA
"104","R_4VddvNyYLDq9h8l","standard","2","37","LP","3.49090909090909","203.89","207.384",NA,"4.501",NA,"0","81",NA
"105","R_4VddvNyYLDq9h8l","standard","2","38","LP","2.15079707022835","209.391","211.543",NA,"3.153",NA,"0","81",NA
"106","R_4VddvNyYLDq9h8l","standard","2","39","LP","30","213.552","243.571",NA,"31.035",NA,"0","81",NA
"107","R_4VddvNyYLDq9h8l","standard","2","40","LP","3.49090909090909","245.604","249.102",NA,"4.5",NA,"0","81",NA
"108","R_4VddvNyYLDq9h8l","standard","2","41","LP","0.264713485566566","251.104","251.375",NA,"1.271",NA,"0","81",NA
"109","R_4VddvNyYLDq9h8l","standard","2","42","LP","13.0392072382594","253.375","266.416",NA,"14.047",NA,"0","81",NA
"110","R_4VddvNyYLDq9h8l","standard","2","43","LP","0.661783713916415","268.423","269.087",NA,"1.679",NA,"0","81",NA
"111","R_4VddvNyYLDq9h8l","standard","2","44","LP","1.25738905644119","271.141","272.402",NA,"2.268",NA,"0","81",NA
"112","R_4VddvNyYLDq9h8l","standard","2","45","LP","30","274.434","304.437",NA,"31.032",NA,"0","81",NA
"113","R_4VddvNyYLDq9h8l","standard","2","46","LP","8.51632916846187","306.484","315.006",NA,"9.553",NA,"0","81",NA
"114","R_4VddvNyYLDq9h8l","standard","2","47","LP","3.49090909090909","317.039","320.535",NA,"4.496",NA,"0","81",NA
"115","R_4VddvNyYLDq9h8l","standard","2","48","LP","0.264713485566566","322.535","322.807",NA,"1.275",NA,"0","81",NA
"116","R_4VddvNyYLDq9h8l","standard","2","49","LP","2.15079707022835","324.81","326.968",NA,"3.172",NA,"0","81",NA
"117","R_4VddvNyYLDq9h8l","standard","2","50","LP","13.0392072382594","328.99","342.031",NA,"14.043",NA,"0","81",NA
"118","R_4VddvNyYLDq9h8l","standard","2","51","LP","13.0392072382594","344.033","357.083","357.15","13.117","0.067","3","84",NA
"119","R_4VddvNyYLDq9h8l","standard","2","52","LP","19.8235243429556","358.167","NaN","359.537","1.37","NaN","0","84",NA
"120","R_4VddvNyYLDq9h8l","standard","2","53","LP","0.264713485566566","360.543","360.807","361.516","0.973","0.709","3","87",NA
"121","R_4VddvNyYLDq9h8l","standard","2","54","LP","1.25738905644119","362.516","363.775",NA,"2.269",NA,"0","87",NA
"122","R_4VddvNyYLDq9h8l","standard","2","55","LP","0.661783713916415","365.791","366.455",NA,"1.672",NA,"0","87",NA
"123","R_4VddvNyYLDq9h8l","standard","2","56","LP","0.264713485566566","368.469","368.735",NA,"1.274",NA,"0","87",NA
"124","R_4VddvNyYLDq9h8l","standard","2","57","LP","0.264713485566566","370.75","371.014",NA,"1.265",NA,"0","87",NA
"125","R_4VddvNyYLDq9h8l","standard","2","58","LP","2.15079707022835","373.017","375.181",NA,"3.185",NA,"0","87",NA
"126","R_4VddvNyYLDq9h8l","standard","2","59","LP","1.25738905644119","377.212","378.47",NA,"2.258",NA,"0","87",NA
"127","R_4VddvNyYLDq9h8l","standard","2","60","LP","5.5010771219302","380.48","385.983","385.99","5.51","0.007","3","90",NA
"128","R_4VddvNyYLDq9h8l","standard","2","61","LP","0.264713485566566","386.998","387.27","388.244","1.246","0.974","3","93",NA
"129","R_4VddvNyYLDq9h8l","standard","2","62","LP","30","389.247","NaN","419.047","29.8","NaN","0","93",NA
"130","R_4VddvNyYLDq9h8l","standard","2","63","LP","3.49090909090909","420.056","NaN","420.905","0.849","NaN","0","93",NA
"131","R_4VddvNyYLDq9h8l","standard","2","64","LP","19.8235243429556","421.914","NaN","422.619","0.705","NaN","0","93",NA
"132","R_4VddvNyYLDq9h8l","standard","2","65","LP","13.0392072382594","423.621","NaN","424.509","0.888","NaN","0","93",NA
"133","R_4VddvNyYLDq9h8l","standard","2","66","LP","19.8235243429556","425.511","NaN","426.054","0.543","NaN","0","93",NA
"134","R_4VddvNyYLDq9h8l","standard","2","67","LP","5.5010771219302","427.056","NaN","427.411","0.355","NaN","0","93",NA
"135","R_4VddvNyYLDq9h8l","standard","2","68","LP","1.25738905644119","428.416","429.685",NA,"2.285",NA,"0","93",NA
"136","R_4VddvNyYLDq9h8l","standard","2","69","LP","8.51632916846187","431.705","440.224",NA,"9.525",NA,"0","93",NA
"137","R_4VddvNyYLDq9h8l","standard","2","70","LP","30","442.232","472.24",NA,"31.015",NA,"0","93",NA
"138","R_4VddvNyYLDq9h8l","standard","2","71","LP","13.0392072382594","474.247","487.294",NA,"14.062",NA,"0","93",NA
"139","R_4VddvNyYLDq9h8l","standard","2","72","LP","30","489.309","519.311",NA,"31.003",NA,"0","93",NA
"140","R_4VddvNyYLDq9h8l","standard","2","73","LP","0.661783713916415","521.332","521.999",NA,"1.681",NA,"0","93",NA
"141","R_4VddvNyYLDq9h8l","standard","2","74","LP","2.15079707022835","524.015","526.175",NA,"3.16",NA,"0","93",NA
"142","R_4VddvNyYLDq9h8l","standard","2","75","LP","1.25738905644119","528.183","529.444",NA,"2.262",NA,"0","93",NA
"143","R_4VddvNyYLDq9h8l","standard","2","76","LP","30","531.447","NaN","553.659","22.212","NaN","0","93",NA
"144","R_4VddvNyYLDq9h8l","standard","2","77","LP","2.15079707022835","554.659","556.819",NA,"3.164",NA,"0","93",NA
"145","R_4VddvNyYLDq9h8l","standard","2","78","LP","0.661783713916415","558.857","559.525",NA,"1.67",NA,"0","93",NA
"146","R_4VddvNyYLDq9h8l","standard","2","79","LP","19.8235243429556","561.534","NaN","566.65","5.116","NaN","0","93",NA
"147","R_4VddvNyYLDq9h8l","standard","2","80","LP","1.25738905644119","567.664","568.925",NA,"2.262",NA,"0","93",NA
"148","R_4VddvNyYLDq9h8l","standard","2","81","LP","8.51632916846187","570.927","NaN","576.05","5.123","NaN","0","93",NA
"149","R_4VddvNyYLDq9h8l","standard","2","82","LP","3.49090909090909","577.054","580.55",NA,"4.497",NA,"0","93",NA
"150","R_4VddvNyYLDq9h8l","standard","2","83","LP","0.661783713916415","582.588","583.254",NA,"1.667",NA,"0","93",NA
