"","subject_id","condition","n_block","n_trialIdx","f_timing_condition","n_scheduled_delay","n_trial_start_time","n_rewarded_time_fin","n_sell_time_fin","n_time_waited_fin","RT_fin","n_trial_earnings_fin","n_total_earnings_fin","keypress_times"
"1","R_6yw6cMtA8V2kXG9","standard","1","1","HP","18","0","18.01","18.388","18.388","0.378","3","3",""
"2","R_6yw6cMtA8V2kXG9","standard","1","2","HP","2","19.4","21.405","21.86","2.46","0.455","3","6",""
"3","R_6yw6cMtA8V2kXG9","standard","1","3","HP","10","22.865","32.875","33.324","10.459","0.449","3","9",""
"4","R_6yw6cMtA8V2kXG9","standard","1","4","HP","16","34.337","50.343","50.686","16.349","0.343","3","12",""
"5","R_6yw6cMtA8V2kXG9","standard","1","5","HP","16","51.7","67.708","68.085","16.385","0.377","3","15",""
"6","R_6yw6cMtA8V2kXG9","standard","1","6","HP","14","69.088","83.091","83.453","14.365","0.362","3","18",""
"7","R_6yw6cMtA8V2kXG9","standard","1","7","HP","18","84.468","102.471","102.853","18.385","0.382","3","21",""
"8","R_6yw6cMtA8V2kXG9","standard","1","8","HP","6","103.858","109.871","110.364","6.506","0.493","3","24",""
"9","R_6yw6cMtA8V2kXG9","standard","1","9","HP","4","111.374","115.382","115.813","4.439","0.431","3","27",""
"10","R_6yw6cMtA8V2kXG9","standard","1","10","HP","10","116.818","126.821","127.181","10.363","0.36","3","30",""
"11","R_6yw6cMtA8V2kXG9","standard","1","11","HP","16","128.191","144.198","144.572","16.381","0.374","3","33",""
"12","R_6yw6cMtA8V2kXG9","standard","1","12","HP","14","145.579","159.581","159.956","14.377","0.375","3","36",""
"13","R_6yw6cMtA8V2kXG9","standard","1","13","HP","14","160.961","174.971","175.3","14.339","0.329","3","39",""
"14","R_6yw6cMtA8V2kXG9","standard","1","14","HP","16","176.305","192.309","192.636","16.331","0.327","3","42",""
"15","R_6yw6cMtA8V2kXG9","standard","1","15","HP","8","193.643","201.656","202.188","8.545","0.532","3","45",""
"16","R_6yw6cMtA8V2kXG9","standard","1","16","HP","10","203.202","213.205","213.517","10.315","0.312","3","48",""
"17","R_6yw6cMtA8V2kXG9","standard","1","17","HP","20","214.528","234.536","234.851","20.323","0.315","3","51",""
"18","R_6yw6cMtA8V2kXG9","standard","1","18","HP","6","235.871","241.898","242.276","6.405","0.378","3","54",""
"19","R_6yw6cMtA8V2kXG9","standard","1","19","HP","10","243.292","253.315","253.629","10.337","0.314","3","57",""
"20","R_6yw6cMtA8V2kXG9","standard","1","20","HP","16","254.633","270.643","270.965","16.332","0.322","3","60",""
"21","R_6yw6cMtA8V2kXG9","standard","1","21","HP","8","271.979","279.994","280.396","8.417","0.402","3","63",""
"22","R_6yw6cMtA8V2kXG9","standard","1","22","HP","16","281.398","297.399","297.763","16.365","0.364","3","66",""
"23","R_6yw6cMtA8V2kXG9","standard","1","23","HP","20","298.769","318.784","319.15","20.381","0.366","3","69",""
"24","R_6yw6cMtA8V2kXG9","standard","1","24","HP","14","320.152","334.155","334.509","14.357","0.354","3","72",""
"25","R_6yw6cMtA8V2kXG9","standard","1","25","HP","6","335.51","341.528","341.923","6.413","0.395","3","75",""
"26","R_6yw6cMtA8V2kXG9","standard","1","26","HP","14","342.938","356.939","357.301","14.363","0.362","3","78",""
"27","R_6yw6cMtA8V2kXG9","standard","1","27","HP","18","358.312","376.316","376.676","18.364","0.36","3","81",""
"28","R_6yw6cMtA8V2kXG9","standard","1","28","HP","8","377.688","385.69","386.061","8.373","0.371","3","84",""
"29","R_6yw6cMtA8V2kXG9","standard","1","29","HP","14","387.079","401.086","401.437","14.358","0.351","3","87",""
"30","R_6yw6cMtA8V2kXG9","standard","1","30","HP","16","402.443","418.449","418.813","16.37","0.364","3","90",""
"31","R_6yw6cMtA8V2kXG9","standard","1","31","HP","10","419.821","429.837","430.308","10.487","0.471","3","93",""
"32","R_6yw6cMtA8V2kXG9","standard","1","32","HP","6","431.31","437.318","437.725","6.415","0.407","3","96",""
"33","R_6yw6cMtA8V2kXG9","standard","1","33","HP","16","438.726","454.729","455.077","16.351","0.348","3","99",""
"34","R_6yw6cMtA8V2kXG9","standard","1","34","HP","4","456.079","460.087","460.429","4.35","0.342","3","102",""
"35","R_6yw6cMtA8V2kXG9","standard","1","35","HP","16","461.445","477.459","477.837","16.392","0.378","3","105",""
"36","R_6yw6cMtA8V2kXG9","standard","1","36","HP","14","478.843","492.852","493.316","14.473","0.464","3","108",""
"37","R_6yw6cMtA8V2kXG9","standard","1","37","HP","10","494.333","504.337","504.702","10.369","0.365","3","111",""
"38","R_6yw6cMtA8V2kXG9","standard","1","38","HP","20","505.703","525.708","526.068","20.365","0.36","3","114",""
"39","R_6yw6cMtA8V2kXG9","standard","1","39","HP","16","527.07","543.074","543.461","16.391","0.387","3","117",""
"40","R_6yw6cMtA8V2kXG9","standard","1","40","HP","20","544.463","564.474","564.814","20.351","0.34","3","120",""
"41","R_6yw6cMtA8V2kXG9","standard","1","41","HP","2","565.819","567.826","568.612","2.793","0.786","3","123",""
"42","R_6yw6cMtA8V2kXG9","standard","1","42","HP","8","569.62","577.634","578.004","8.384","0.37","3","126",""
"43","R_6yw6cMtA8V2kXG9","standard","1","43","HP","12","579.006","591.007","591.373","12.367","0.366","3","129",""
"44","R_6yw6cMtA8V2kXG9","standard","1","44","HP","20","592.38","612.394","612.715","20.335","0.321","3","132",""
"45","R_6yw6cMtA8V2kXG9","standard","1","45","HP","18","613.728","631.738","632.092","18.364","0.354","3","135",""
"46","R_6yw6cMtA8V2kXG9","standard","1","46","HP","8","633.102","641.108","641.444","8.342","0.336","3","138",""
"47","R_6yw6cMtA8V2kXG9","standard","1","47","HP","16","642.449","658.459","658.822","16.373","0.363","3","141",""
"48","R_6yw6cMtA8V2kXG9","standard","1","48","HP","10","659.833","669.838","670.187","10.354","0.349","3","144",""
"49","R_6yw6cMtA8V2kXG9","standard","1","49","HP","16","671.209","687.215","687.573","16.364","0.358","3","147",""
"50","R_6yw6cMtA8V2kXG9","standard","1","50","HP","14","688.597","702.607","703.019","14.422","0.412","3","150",""
"51","R_6yw6cMtA8V2kXG9","standard","1","51","HP","2","704.03","706.036","706.5","2.47","0.464","3","153",""
"52","R_6yw6cMtA8V2kXG9","standard","1","52","HP","10","707.509","717.513","717.908","10.399","0.395","3","156",""
"53","R_6yw6cMtA8V2kXG9","standard","1","53","HP","18","718.916","736.92","737.291","18.375","0.371","3","159",""
"54","R_6yw6cMtA8V2kXG9","standard","1","54","HP","6","738.303","744.306","744.684","6.381","0.378","3","162",""
"55","R_6yw6cMtA8V2kXG9","standard","1","55","HP","14","745.693","759.71","760.084","14.391","0.374","3","165",""
"56","R_6yw6cMtA8V2kXG9","standard","1","56","HP","20","761.089","781.103","781.444","20.355","0.341","3","168",""
"57","R_6yw6cMtA8V2kXG9","standard","1","57","HP","10","782.445","792.445","792.804","10.359","0.359","3","171",""
"58","R_6yw6cMtA8V2kXG9","standard","1","58","HP","12","793.817","805.825","806.179","12.362","0.354","3","174",""
"59","R_6yw6cMtA8V2kXG9","standard","1","59","HP","20","807.764","827.765","828.156","20.392","0.391","3","177",""
"60","R_6yw6cMtA8V2kXG9","standard","1","60","HP","2","829.801","831.805","832.212","2.411","0.407","3","180",""
"61","R_6yw6cMtA8V2kXG9","standard","1","61","HP","6","833.224","839.237","839.587","6.363","0.35","3","183",""
"62","R_6yw6cMtA8V2kXG9","standard","1","62","HP","16","840.603","856.607","857.003","16.4","0.396","3","186",""
"63","R_6yw6cMtA8V2kXG9","standard","1","63","HP","10","858.01","868.016","868.387","10.377","0.371","3","189",""
"64","R_6yw6cMtA8V2kXG9","standard","1","64","HP","4","869.394","873.402","873.788","4.394","0.386","3","192",""
"65","R_6yw6cMtA8V2kXG9","standard","1","65","HP","12","874.805","886.811","887.156","12.351","0.345","3","195",""
"66","R_6yw6cMtA8V2kXG9","standard","1","66","HP","2","888.166","890.169","890.811","2.645","0.642","3","198",""
"67","R_6yw6cMtA8V2kXG9","standard","1","67","HP","6","891.82","897.84","898.212","6.392","0.372","3","201",""
"68","R_6yw6cMtA8V2kXG9","standard","2","1","LP","8.51632916846187","0","8.528","8.951","8.951","0.423","3","204",NA
"69","R_6yw6cMtA8V2kXG9","standard","2","2","LP","19.8235243429556","9.963","29.798","30.216","20.253","0.418","3","207",NA
"70","R_6yw6cMtA8V2kXG9","standard","2","3","LP","0.264713485566566","31.219","31.487","31.912","0.693","0.425","3","210",NA
"71","R_6yw6cMtA8V2kXG9","standard","2","4","LP","19.8235243429556","32.922","52.756","53.128","20.206","0.372","3","213",NA
"72","R_6yw6cMtA8V2kXG9","standard","2","5","LP","0.264713485566566","54.134","54.407","54.784","0.65","0.377","3","216",NA
"73","R_6yw6cMtA8V2kXG9","standard","2","6","LP","1.25738905644119","55.795","57.068","57.432","1.637","0.364","3","219",NA
"74","R_6yw6cMtA8V2kXG9","standard","2","7","LP","19.8235243429556","58.439","78.277","78.679","20.24","0.402","3","222",NA
"75","R_6yw6cMtA8V2kXG9","standard","2","8","LP","2.15079707022835","80.268","82.425","82.776","2.508","0.351","3","225",NA
"76","R_6yw6cMtA8V2kXG9","standard","2","9","LP","1.25738905644119","83.791","85.063","85.728","1.937","0.665","3","228",NA
"77","R_6yw6cMtA8V2kXG9","standard","2","10","LP","5.5010771219302","86.729","92.243","92.6","5.871","0.357","3","231",NA
"78","R_6yw6cMtA8V2kXG9","standard","2","11","LP","3.49090909090909","93.614","97.108","97.448","3.834","0.34","3","234",NA
"79","R_6yw6cMtA8V2kXG9","standard","2","12","LP","19.8235243429556","98.454","118.285","118.664","20.21","0.379","3","237",NA
"80","R_6yw6cMtA8V2kXG9","standard","2","13","LP","30","119.674","149.676","150.024","30.35","0.348","3","240",NA
"81","R_6yw6cMtA8V2kXG9","standard","2","14","LP","3.49090909090909","151.031","154.526","154.968","3.937","0.442","3","243",NA
"82","R_6yw6cMtA8V2kXG9","standard","2","15","LP","5.5010771219302","155.975","161.489","161.808","5.833","0.319","3","246",NA
"83","R_6yw6cMtA8V2kXG9","standard","2","16","LP","0.264713485566566","162.809","163.077","163.704","0.895","0.627","3","249",NA
"84","R_6yw6cMtA8V2kXG9","standard","2","17","LP","5.5010771219302","164.713","170.233","170.568","5.855","0.335","3","252",NA
"85","R_6yw6cMtA8V2kXG9","standard","2","18","LP","5.5010771219302","171.584","177.096","177.441","5.857","0.345","3","255",NA
"86","R_6yw6cMtA8V2kXG9","standard","2","19","LP","3.49090909090909","178.447","181.94","182.224","3.777","0.284","3","258",NA
"87","R_6yw6cMtA8V2kXG9","standard","2","20","LP","13.0392072382594","183.232","196.286","196.624","13.392","0.338","3","261",NA
"88","R_6yw6cMtA8V2kXG9","standard","2","21","LP","19.8235243429556","197.628","217.461","217.815","20.187","0.354","3","264",NA
"89","R_6yw6cMtA8V2kXG9","standard","2","22","LP","19.8235243429556","218.828","238.66","239.008","20.18","0.348","3","267",NA
"90","R_6yw6cMtA8V2kXG9","standard","2","23","LP","8.51632916846187","240.01","248.529","248.896","8.886","0.367","3","270",NA
"91","R_6yw6cMtA8V2kXG9","standard","2","24","LP","0.661783713916415","249.903","250.572","250.926","1.023","0.354","3","273",NA
"92","R_6yw6cMtA8V2kXG9","standard","2","25","LP","13.0392072382594","251.937","264.99","265.409","13.472","0.419","3","276",NA
"93","R_6yw6cMtA8V2kXG9","standard","2","26","LP","13.0392072382594","266.425","NaN","275.88","9.455","NaN","0","276",NA
"94","R_6yw6cMtA8V2kXG9","standard","2","27","LP","13.0392072382594","276.896","289.951","290.337","13.441","0.386","3","279",NA
"95","R_6yw6cMtA8V2kXG9","standard","2","28","LP","2.15079707022835","291.355","293.506","294.039","2.684","0.533","3","282",NA
"96","R_6yw6cMtA8V2kXG9","standard","2","29","LP","8.51632916846187","295.047","303.584","303.944","8.897","0.36","3","285",NA
"97","R_6yw6cMtA8V2kXG9","standard","2","30","LP","30","304.953","334.966","335.32","30.367","0.354","3","288",NA
"98","R_6yw6cMtA8V2kXG9","standard","2","31","LP","19.8235243429556","336.328","356.156","356.792","20.464","0.636","3","291",NA
"99","R_6yw6cMtA8V2kXG9","standard","2","32","LP","8.51632916846187","357.814","366.333","366.703","8.889","0.37","3","294",NA
"100","R_6yw6cMtA8V2kXG9","standard","2","33","LP","2.15079707022835","367.714","369.874","370.248","2.534","0.374","3","297",NA
"101","R_6yw6cMtA8V2kXG9","standard","2","34","LP","0.264713485566566","371.251","371.523","371.881","0.63","0.358","3","300",NA
"102","R_6yw6cMtA8V2kXG9","standard","2","35","LP","30","372.883","402.884","403.206","30.323","0.322","3","303",NA
"103","R_6yw6cMtA8V2kXG9","standard","2","36","LP","0.264713485566566","404.21","404.484","405","0.79","0.516","3","306",NA
"104","R_6yw6cMtA8V2kXG9","standard","2","37","LP","8.51632916846187","406.013","414.548","414.976","8.963","0.428","3","309",NA
"105","R_6yw6cMtA8V2kXG9","standard","2","38","LP","5.5010771219302","415.982","421.495","421.904","5.922","0.409","3","312",NA
"106","R_6yw6cMtA8V2kXG9","standard","2","39","LP","2.15079707022835","422.913","425.073","425.44","2.527","0.367","3","315",NA
"107","R_6yw6cMtA8V2kXG9","standard","2","40","LP","0.264713485566566","426.454","426.744","427.09","0.636","0.346","3","318",NA
"108","R_6yw6cMtA8V2kXG9","standard","2","41","LP","5.5010771219302","428.095","433.61","433.975","5.88","0.365","3","321",NA
"109","R_6yw6cMtA8V2kXG9","standard","2","42","LP","8.51632916846187","434.977","443.498","443.935","8.958","0.437","3","324",NA
"110","R_6yw6cMtA8V2kXG9","standard","2","43","LP","5.5010771219302","444.939","450.454","450.799","5.86","0.345","3","327",NA
"111","R_6yw6cMtA8V2kXG9","standard","2","44","LP","0.661783713916415","451.807","452.474","452.815","1.008","0.341","3","330",NA
"112","R_6yw6cMtA8V2kXG9","standard","2","45","LP","30","453.82","483.834","484.096","30.276","0.262","3","333",NA
"113","R_6yw6cMtA8V2kXG9","standard","2","46","LP","1.25738905644119","485.098","486.355","486.695","1.597","0.34","3","336",NA
"114","R_6yw6cMtA8V2kXG9","standard","2","47","LP","0.661783713916415","487.705","488.376","488.832","1.127","0.456","3","339",NA
"115","R_6yw6cMtA8V2kXG9","standard","2","48","LP","13.0392072382594","489.833","502.88","503.24","13.407","0.36","3","342",NA
"116","R_6yw6cMtA8V2kXG9","standard","2","49","LP","1.25738905644119","504.245","505.518","505.896","1.651","0.378","3","345",NA
"117","R_6yw6cMtA8V2kXG9","standard","2","50","LP","3.49090909090909","506.906","510.399","510.703","3.797","0.304","3","348",NA
"118","R_6yw6cMtA8V2kXG9","standard","2","51","LP","13.0392072382594","511.718","524.772","525.119","13.401","0.347","3","351",NA
"119","R_6yw6cMtA8V2kXG9","standard","2","52","LP","8.51632916846187","526.122","534.643","534.951","8.829","0.308","3","354",NA
"120","R_6yw6cMtA8V2kXG9","standard","2","53","LP","3.49090909090909","535.961","539.454","539.886","3.925","0.432","3","357",NA
"121","R_6yw6cMtA8V2kXG9","standard","2","54","LP","13.0392072382594","540.891","553.936","554.288","13.397","0.352","3","360",NA
"122","R_6yw6cMtA8V2kXG9","standard","2","55","LP","8.51632916846187","555.292","563.814","564.272","8.98","0.458","3","363",NA
"123","R_6yw6cMtA8V2kXG9","standard","2","56","LP","0.264713485566566","565.292","565.564","565.951","0.659","0.387","3","366",NA
"124","R_6yw6cMtA8V2kXG9","standard","2","57","LP","13.0392072382594","566.967","580.006","580.376","13.409","0.37","3","369",NA
"125","R_6yw6cMtA8V2kXG9","standard","2","58","LP","8.51632916846187","581.389","589.906","590.319","8.93","0.413","3","372",NA
"126","R_6yw6cMtA8V2kXG9","standard","2","59","LP","0.661783713916415","591.331","591.996","592.358","1.027","0.362","3","375",NA
"127","R_6yw6cMtA8V2kXG9","standard","2","60","LP","3.49090909090909","593.36","596.856","597.199","3.839","0.343","3","378",NA
"128","R_6yw6cMtA8V2kXG9","standard","2","61","LP","0.661783713916415","598.212","598.876","599.199","0.987","0.323","3","381",NA
