"","subject_id","condition","n_block","n_trialIdx","f_timing_condition","n_scheduled_delay","n_trial_start_time","n_rewarded_time_fin","n_sell_time_fin","n_time_waited_fin","RT_fin","n_trial_earnings_fin","n_total_earnings_fin","keypress_times"
"1","R_b1M4YDN6mDd7Yqd","standard","1","1","LP","1.25738905644119","0.003","1.276","2.037","2.034","0.761","3","3",""
"2","R_b1M4YDN6mDd7Yqd","standard","1","2","LP","5.5010771219302","3.044","8.549","9.066","6.022","0.517","3","6",""
"3","R_b1M4YDN6mDd7Yqd","standard","1","3","LP","0.264713485566566","10.068","10.34","11.277","1.209","0.937","3","9",""
"4","R_b1M4YDN6mDd7Yqd","standard","1","4","LP","3.49090909090909","12.298","15.797","16.437","4.139","0.64","3","12",""
"5","R_b1M4YDN6mDd7Yqd","standard","1","5","LP","3.49090909090909","17.444","20.938","21.495","4.051","0.557","3","15",""
"6","R_b1M4YDN6mDd7Yqd","standard","1","6","LP","5.5010771219302","22.51","28.017","28.582","6.072","0.565","3","18",""
"7","R_b1M4YDN6mDd7Yqd","standard","1","7","LP","13.0392072382594","29.596","42.637","43.291","13.695","0.654","3","21",""
"8","R_b1M4YDN6mDd7Yqd","standard","1","8","LP","13.0392072382594","44.323","57.379","57.998","13.675","0.619","3","24",""
"9","R_b1M4YDN6mDd7Yqd","standard","1","9","LP","1.25738905644119","59.012","60.281","61.069","2.057","0.788","3","27",""
"10","R_b1M4YDN6mDd7Yqd","standard","1","10","LP","0.264713485566566","62.079","62.349","NA","1.279","NA","0","27",""
"11","R_b1M4YDN6mDd7Yqd","standard","1","11","LP","1.25738905644119","64.365","65.635","NA","2.297","NA","0","24","716"
"12","R_b1M4YDN6mDd7Yqd","standard","1","12","LP","5.5010771219302","67.678","73.189","NA","6.519","NA","0","24",""
"13","R_b1M4YDN6mDd7Yqd","standard","1","13","LP","5.5010771219302","75.206","80.711","81.325","6.119","0.614","3","27",""
"14","R_b1M4YDN6mDd7Yqd","standard","1","14","LP","3.49090909090909","82.329","85.821","86.479","4.15","0.658","3","30",""
"15","R_b1M4YDN6mDd7Yqd","standard","1","15","LP","0.264713485566566","87.486","87.756","88.596","1.11","0.84","3","33",""
"16","R_b1M4YDN6mDd7Yqd","standard","1","16","LP","0.264713485566566","89.614","89.893","90.606","0.992","0.713","3","36",""
"17","R_b1M4YDN6mDd7Yqd","standard","1","17","LP","0.661783713916415","91.618","92.294","92.9","1.282","0.606","3","39",""
"18","R_b1M4YDN6mDd7Yqd","standard","1","18","LP","0.264713485566566","93.909","94.182","94.687","0.778","0.505","3","42",""
"19","R_b1M4YDN6mDd7Yqd","standard","1","19","LP","8.51632916846187","95.695","104.22","104.844","9.149","0.624","3","45",""
"20","R_b1M4YDN6mDd7Yqd","standard","1","20","LP","2.15079707022835","105.852","108.023","108.608","2.756","0.585","3","48",""
"21","R_b1M4YDN6mDd7Yqd","standard","1","21","LP","0.264713485566566","109.612","109.876","110.562","0.95","0.686","3","51",""
"22","R_b1M4YDN6mDd7Yqd","standard","1","22","LP","2.15079707022835","111.573","113.729","114.259","2.686","0.53","3","54",""
"23","R_b1M4YDN6mDd7Yqd","standard","1","23","LP","13.0392072382594","115.262","128.324","128.909","13.647","0.585","3","57",""
"24","R_b1M4YDN6mDd7Yqd","standard","1","24","LP","19.8235243429556","129.909","149.733","150.377","20.468","0.644","3","60",""
"25","R_b1M4YDN6mDd7Yqd","standard","1","25","LP","19.8235243429556","151.613","171.453","172.555","20.942","1.102","3","63",""
"26","R_b1M4YDN6mDd7Yqd","standard","1","26","LP","30","173.557","203.565","204.218","30.661","0.653","3","66",""
"27","R_b1M4YDN6mDd7Yqd","standard","1","27","LP","8.51632916846187","205.221","213.74","214.339","9.118","0.599","3","69",""
"28","R_b1M4YDN6mDd7Yqd","standard","1","28","LP","0.264713485566566","215.341","215.61","NA","1.546","NA","0","69",""
"29","R_b1M4YDN6mDd7Yqd","standard","1","29","LP","19.8235243429556","217.893","237.723","238.385","20.492","0.662","3","72",""
"30","R_b1M4YDN6mDd7Yqd","standard","1","30","LP","5.5010771219302","239.388","244.893","245.487","6.099","0.594","3","75",""
"31","R_b1M4YDN6mDd7Yqd","standard","1","31","LP","8.51632916846187","246.505","255.051","255.672","9.167","0.621","3","78",""
"32","R_b1M4YDN6mDd7Yqd","standard","1","32","LP","13.0392072382594","256.688","269.732","270.327","13.639","0.595","3","81",""
"33","R_b1M4YDN6mDd7Yqd","standard","1","33","LP","30","271.334","301.337","301.938","30.604","0.601","3","84",""
"34","R_b1M4YDN6mDd7Yqd","standard","1","34","LP","30","302.941","332.951","333.475","30.534","0.524","3","87",""
"35","R_b1M4YDN6mDd7Yqd","standard","1","35","LP","5.5010771219302","334.477","339.995","340.658","6.181","0.663","3","90",""
"36","R_b1M4YDN6mDd7Yqd","standard","1","36","LP","0.661783713916415","341.662","342.332","343.04","1.378","0.708","3","93",""
"37","R_b1M4YDN6mDd7Yqd","standard","1","37","LP","0.661783713916415","344.044","344.709","345.462","1.418","0.753","3","96",""
"38","R_b1M4YDN6mDd7Yqd","standard","1","38","LP","0.661783713916415","346.469","347.133","NA","1.672","NA","0","96",""
"39","R_b1M4YDN6mDd7Yqd","standard","1","39","LP","30","349.149","379.156","379.791","30.642","0.635","3","99",""
"40","R_b1M4YDN6mDd7Yqd","standard","1","40","LP","3.49090909090909","380.8","384.299","384.944","4.144","0.645","3","102",""
"41","R_b1M4YDN6mDd7Yqd","standard","1","41","LP","5.5010771219302","385.948","391.452","392.053","6.105","0.601","3","105",""
"42","R_b1M4YDN6mDd7Yqd","standard","1","42","LP","0.264713485566566","393.067","393.333","394.237","1.17","0.904","3","108",""
"43","R_b1M4YDN6mDd7Yqd","standard","1","43","LP","30","395.245","425.265","425.867","30.622","0.602","3","111",""
"44","R_b1M4YDN6mDd7Yqd","standard","1","44","LP","19.8235243429556","426.881","446.718","447.359","20.478","0.641","3","114",""
"45","R_b1M4YDN6mDd7Yqd","standard","1","45","LP","2.15079707022835","448.364","450.525","451.099","2.735","0.574","3","117",""
"46","R_b1M4YDN6mDd7Yqd","standard","1","46","LP","0.661783713916415","452.12","452.796","453.484","1.364","0.688","3","120",""
"47","R_b1M4YDN6mDd7Yqd","standard","1","47","LP","30","454.494","484.513","485.08","30.586","0.567","3","123",""
"48","R_b1M4YDN6mDd7Yqd","standard","1","48","LP","2.15079707022835","486.096","488.252","488.937","2.841","0.685","3","126",""
"49","R_b1M4YDN6mDd7Yqd","standard","1","49","LP","13.0392072382594","489.94","502.994","503.739","13.799","0.745","3","129",""
"50","R_b1M4YDN6mDd7Yqd","standard","1","50","LP","19.8235243429556","504.748","524.594","525.247","20.499","0.653","3","132",""
"51","R_b1M4YDN6mDd7Yqd","standard","1","51","LP","2.15079707022835","526.252","528.411","529.13","2.878","0.719","3","135",""
"52","R_b1M4YDN6mDd7Yqd","standard","1","52","LP","8.51632916846187","530.132","538.653","539.221","9.089","0.568","3","138",""
"53","R_b1M4YDN6mDd7Yqd","standard","1","53","LP","3.49090909090909","540.228","543.727","544.378","4.15","0.651","3","141",""
"54","R_b1M4YDN6mDd7Yqd","standard","1","54","LP","1.25738905644119","545.394","546.66","547.318","1.924","0.658","3","144",""
"55","R_b1M4YDN6mDd7Yqd","standard","1","55","LP","1.25738905644119","548.33","549.596","550.431","2.101","0.835","3","147",""
"56","R_b1M4YDN6mDd7Yqd","standard","1","56","LP","2.15079707022835","551.436","553.589","554.18","2.744","0.591","3","150",""
"57","R_b1M4YDN6mDd7Yqd","standard","1","57","LP","5.5010771219302","555.189","560.692","561.313","6.124","0.621","3","153",""
"58","R_b1M4YDN6mDd7Yqd","standard","1","58","LP","30","562.316","592.325","592.977","30.661","0.652","3","156",""
"59","R_b1M4YDN6mDd7Yqd","standard","1","59","LP","19.8235243429556","593.994","613.825","614.532","20.538","0.707","3","159",""
"60","R_b1M4YDN6mDd7Yqd","standard","1","60","LP","13.0392072382594","615.541","628.59","629.259","13.718","0.669","3","162",""
"61","R_b1M4YDN6mDd7Yqd","standard","1","61","LP","2.15079707022835","630.276","632.429","633.038","2.762","0.609","3","165",""
"62","R_b1M4YDN6mDd7Yqd","standard","1","62","LP","5.5010771219302","634.046","639.549","640.197","6.151","0.648","3","168",""
"63","R_b1M4YDN6mDd7Yqd","standard","1","63","LP","30","641.208","671.224","671.763","30.555","0.539","3","171",""
"64","R_b1M4YDN6mDd7Yqd","standard","1","64","LP","5.5010771219302","672.766","678.272","678.87","6.104","0.598","3","174",""
"65","R_b1M4YDN6mDd7Yqd","standard","1","65","LP","2.15079707022835","679.888","682.046","682.704","2.816","0.658","3","177",""
"66","R_b1M4YDN6mDd7Yqd","standard","1","66","LP","5.5010771219302","683.721","689.228","689.969","6.248","0.741","3","180",""
"67","R_b1M4YDN6mDd7Yqd","standard","1","67","LP","19.8235243429556","690.987","710.821","711.563","20.576","0.742","3","183",""
"68","R_b1M4YDN6mDd7Yqd","standard","1","68","LP","19.8235243429556","712.587","732.434","733.158","20.571","0.724","3","186",""
"69","R_b1M4YDN6mDd7Yqd","standard","1","69","LP","1.25738905644119","734.169","735.428","736.17","2.001","0.742","3","189",""
"70","R_b1M4YDN6mDd7Yqd","standard","1","70","LP","8.51632916846187","737.186","745.718","746.341","9.155","0.623","3","192",""
"71","R_b1M4YDN6mDd7Yqd","standard","1","71","LP","13.0392072382594","747.348","760.401","761.045","13.697","0.644","3","195",""
"72","R_b1M4YDN6mDd7Yqd","standard","1","72","LP","5.5010771219302","762.054","767.565","768.257","6.203","0.692","3","198",""
"73","R_b1M4YDN6mDd7Yqd","standard","1","73","LP","1.25738905644119","769.261","770.525","771.176","1.915","0.651","3","201",""
"74","R_b1M4YDN6mDd7Yqd","standard","1","74","LP","5.5010771219302","772.182","777.7","778.289","6.107","0.589","3","204",""
"75","R_b1M4YDN6mDd7Yqd","standard","1","75","LP","2.15079707022835","779.301","781.461","782.102","2.801","0.641","3","207",""
"76","R_b1M4YDN6mDd7Yqd","standard","1","76","LP","1.25738905644119","783.119","784.385","784.969","1.85","0.584","3","210",""
"77","R_b1M4YDN6mDd7Yqd","standard","1","77","LP","30","785.986","815.998","816.564","30.578","0.566","3","213",""
"78","R_b1M4YDN6mDd7Yqd","standard","1","78","LP","13.0392072382594","817.583","830.63","831.297","13.714","0.667","3","213","4167"
"79","R_b1M4YDN6mDd7Yqd","standard","1","79","LP","1.25738905644119","832.323","833.589","834.329","2.006","0.74","3","216",""
"80","R_b1M4YDN6mDd7Yqd","standard","1","80","LP","30","835.338","865.341","866.059","30.721","0.718","3","219",""
"81","R_b1M4YDN6mDd7Yqd","standard","1","81","LP","0.661783713916415","867.069","867.732","868.439","1.37","0.707","3","222",""
"82","R_b1M4YDN6mDd7Yqd","standard","1","82","LP","1.25738905644119","869.445","870.714","871.339","1.894","0.625","3","225",""
"83","R_b1M4YDN6mDd7Yqd","standard","1","83","LP","0.661783713916415","872.341","873.011","873.76","1.419","0.749","3","228",""
"84","R_b1M4YDN6mDd7Yqd","standard","2","1","LP","5.5010771219302","0","NaN","0.747","0.747","NaN","0","228",NA
"85","R_b1M4YDN6mDd7Yqd","standard","2","2","LP","30","1.753","NaN","2.542","0.789","NaN","0","228",NA
"86","R_b1M4YDN6mDd7Yqd","standard","2","3","LP","2.15079707022835","3.545","NaN","4.042","0.497","NaN","0","228",NA
"87","R_b1M4YDN6mDd7Yqd","standard","2","4","LP","13.0392072382594","5.049","NaN","5.583","0.534","NaN","0","228",NA
"88","R_b1M4YDN6mDd7Yqd","standard","2","5","LP","1.25738905644119","6.591","NaN","7.158","0.567","NaN","0","228",NA
"89","R_b1M4YDN6mDd7Yqd","standard","2","6","LP","3.49090909090909","8.19","NaN","8.748","0.558","NaN","0","228",NA
"90","R_b1M4YDN6mDd7Yqd","standard","2","7","LP","5.5010771219302","9.752","NaN","10.707","0.955","NaN","0","228",NA
"91","R_b1M4YDN6mDd7Yqd","standard","2","8","LP","3.49090909090909","11.71","NaN","12.24","0.53","NaN","0","228",NA
"92","R_b1M4YDN6mDd7Yqd","standard","2","9","LP","30","13.248","NaN","13.779","0.531","NaN","0","228",NA
"93","R_b1M4YDN6mDd7Yqd","standard","2","10","LP","13.0392072382594","14.784","NaN","15.34","0.556","NaN","0","228",NA
"94","R_b1M4YDN6mDd7Yqd","standard","2","11","LP","19.8235243429556","16.341","NaN","17.013","0.672","NaN","0","228",NA
"95","R_b1M4YDN6mDd7Yqd","standard","2","12","LP","2.15079707022835","18.017","NaN","18.582","0.565","NaN","0","228",NA
"96","R_b1M4YDN6mDd7Yqd","standard","2","13","LP","3.49090909090909","19.585","NaN","19.993","0.408","NaN","0","228",NA
"97","R_b1M4YDN6mDd7Yqd","standard","2","14","LP","0.264713485566566","21.004","21.274","21.86","0.856","0.586","3","231",NA
"98","R_b1M4YDN6mDd7Yqd","standard","2","15","LP","3.49090909090909","22.872","NaN","23.396","0.524","NaN","0","231",NA
"99","R_b1M4YDN6mDd7Yqd","standard","2","16","LP","1.25738905644119","24.411","NaN","24.879","0.468","NaN","0","231",NA
"100","R_b1M4YDN6mDd7Yqd","standard","2","17","LP","13.0392072382594","25.889","NaN","26.219","0.33","NaN","0","231",NA
"101","R_b1M4YDN6mDd7Yqd","standard","2","18","LP","5.5010771219302","27.223","NaN","27.705","0.482","NaN","0","231",NA
"102","R_b1M4YDN6mDd7Yqd","standard","2","19","LP","30","28.711","NaN","29.498","0.787","NaN","0","231",NA
"103","R_b1M4YDN6mDd7Yqd","standard","2","20","LP","8.51632916846187","30.638","NaN","31.43","0.792","NaN","0","231",NA
"104","R_b1M4YDN6mDd7Yqd","standard","2","21","LP","8.51632916846187","32.444","NaN","33.106","0.662","NaN","0","231",NA
"105","R_b1M4YDN6mDd7Yqd","standard","2","22","LP","2.15079707022835","34.116","NaN","34.329","0.213","NaN","0","231",NA
"106","R_b1M4YDN6mDd7Yqd","standard","2","23","LP","3.49090909090909","35.33","NaN","36","0.67","NaN","0","231",NA
"107","R_b1M4YDN6mDd7Yqd","standard","2","24","LP","8.51632916846187","37.006","NaN","37.23","0.224","NaN","0","231",NA
"108","R_b1M4YDN6mDd7Yqd","standard","2","25","LP","19.8235243429556","38.232","NaN","38.822","0.59","NaN","0","231",NA
"109","R_b1M4YDN6mDd7Yqd","standard","2","26","LP","3.49090909090909","39.823","NaN","40.133","0.31","NaN","0","231",NA
"110","R_b1M4YDN6mDd7Yqd","standard","2","27","LP","30","41.136","NaN","41.396","0.26","NaN","0","231",NA
"111","R_b1M4YDN6mDd7Yqd","standard","2","28","LP","19.8235243429556","42.417","NaN","42.912","0.495","NaN","0","231",NA
"112","R_b1M4YDN6mDd7Yqd","standard","2","29","LP","1.25738905644119","43.913","NaN","44.457","0.544","NaN","0","231",NA
"113","R_b1M4YDN6mDd7Yqd","standard","2","30","LP","8.51632916846187","45.473","NaN","45.974","0.501","NaN","0","231",NA
"114","R_b1M4YDN6mDd7Yqd","standard","2","31","LP","1.25738905644119","46.997","NaN","47.374","0.377","NaN","0","231",NA
"115","R_b1M4YDN6mDd7Yqd","standard","2","32","LP","0.264713485566566","48.378","48.659","49.03","0.652","0.371","3","234",NA
"116","R_b1M4YDN6mDd7Yqd","standard","2","33","LP","19.8235243429556","50.032","NaN","50.599","0.567","NaN","0","234",NA
"117","R_b1M4YDN6mDd7Yqd","standard","2","34","LP","8.51632916846187","51.601","NaN","52.356","0.755","NaN","0","234",NA
"118","R_b1M4YDN6mDd7Yqd","standard","2","35","LP","19.8235243429556","53.392","NaN","53.989","0.597","NaN","0","234",NA
"119","R_b1M4YDN6mDd7Yqd","standard","2","36","LP","0.661783713916415","55.005","NaN","55.489","0.484","NaN","0","234",NA
"120","R_b1M4YDN6mDd7Yqd","standard","2","37","LP","8.51632916846187","56.505","NaN","57.157","0.652","NaN","0","234",NA
"121","R_b1M4YDN6mDd7Yqd","standard","2","38","LP","0.661783713916415","58.191","NaN","58.769","0.578","NaN","0","234",NA
"122","R_b1M4YDN6mDd7Yqd","standard","2","39","LP","5.5010771219302","59.789","NaN","60.374","0.585","NaN","0","234",NA
"123","R_b1M4YDN6mDd7Yqd","standard","2","40","LP","19.8235243429556","61.387","NaN","62.155","0.768","NaN","0","234",NA
"124","R_b1M4YDN6mDd7Yqd","standard","2","41","LP","5.5010771219302","63.172","NaN","63.799","0.627","NaN","0","234",NA
"125","R_b1M4YDN6mDd7Yqd","standard","2","42","LP","3.49090909090909","64.801","NaN","65.34","0.539","NaN","0","234",NA
"126","R_b1M4YDN6mDd7Yqd","standard","2","43","LP","0.661783713916415","66.345","NaN","66.656","0.311","NaN","0","234",NA
"127","R_b1M4YDN6mDd7Yqd","standard","2","44","LP","2.15079707022835","67.677","NaN","68.539","0.862","NaN","0","234",NA
"128","R_b1M4YDN6mDd7Yqd","standard","2","45","LP","3.49090909090909","69.541","NaN","69.852","0.311","NaN","0","234",NA
"129","R_b1M4YDN6mDd7Yqd","standard","2","46","LP","3.49090909090909","70.856","NaN","71.484","0.628","NaN","0","234",NA
"130","R_b1M4YDN6mDd7Yqd","standard","2","47","LP","3.49090909090909","72.489","NaN","72.986","0.497","NaN","0","234",NA
"131","R_b1M4YDN6mDd7Yqd","standard","2","48","LP","8.51632916846187","74.002","NaN","74.562","0.56","NaN","0","234",NA
"132","R_b1M4YDN6mDd7Yqd","standard","2","49","LP","0.661783713916415","75.568","76.233","76.26","0.692","0.027","3","237",NA
"133","R_b1M4YDN6mDd7Yqd","standard","2","50","LP","0.661783713916415","77.265","NaN","77.874","0.609","NaN","0","237",NA
"134","R_b1M4YDN6mDd7Yqd","standard","2","51","LP","2.15079707022835","78.888","NaN","79.798","0.91","NaN","0","237",NA
"135","R_b1M4YDN6mDd7Yqd","standard","2","52","LP","3.49090909090909","80.804","NaN","81.645","0.841","NaN","0","237",NA
"136","R_b1M4YDN6mDd7Yqd","standard","2","53","LP","19.8235243429556","82.649","NaN","84.301","1.652","NaN","0","237",NA
"137","R_b1M4YDN6mDd7Yqd","standard","2","54","LP","1.25738905644119","85.32","NaN","85.93","0.61","NaN","0","237",NA
"138","R_b1M4YDN6mDd7Yqd","standard","2","55","LP","19.8235243429556","86.936","NaN","87.849","0.913","NaN","0","237",NA
"139","R_b1M4YDN6mDd7Yqd","standard","2","56","LP","19.8235243429556","88.907","NaN","91.109","2.202","NaN","0","237",NA
"140","R_b1M4YDN6mDd7Yqd","standard","2","57","LP","8.51632916846187","92.12","NaN","94.902","2.782","NaN","0","237",NA
"141","R_b1M4YDN6mDd7Yqd","standard","2","58","LP","3.49090909090909","95.92","NaN","96.692","0.772","NaN","0","237",NA
"142","R_b1M4YDN6mDd7Yqd","standard","2","59","LP","0.661783713916415","97.705","NaN","98.25","0.545","NaN","0","237",NA
"143","R_b1M4YDN6mDd7Yqd","standard","2","60","LP","30","99.257","NaN","99.971","0.714","NaN","0","237",NA
"144","R_b1M4YDN6mDd7Yqd","standard","2","61","LP","2.15079707022835","100.988","NaN","101.749","0.761","NaN","0","237",NA
"145","R_b1M4YDN6mDd7Yqd","standard","2","62","LP","19.8235243429556","102.754","NaN","103.419","0.665","NaN","0","237",NA
"146","R_b1M4YDN6mDd7Yqd","standard","2","63","LP","2.15079707022835","104.423","NaN","104.987","0.564","NaN","0","237",NA
"147","R_b1M4YDN6mDd7Yqd","standard","2","64","LP","0.661783713916415","106.005","106.687","106.787","0.782","0.1","3","240",NA
"148","R_b1M4YDN6mDd7Yqd","standard","2","65","LP","8.51632916846187","107.805","NaN","108.328","0.523","NaN","0","240",NA
"149","R_b1M4YDN6mDd7Yqd","standard","2","66","LP","0.264713485566566","109.337","109.612","109.941","0.604","0.329","3","243",NA
"150","R_b1M4YDN6mDd7Yqd","standard","2","67","LP","5.5010771219302","110.944","NaN","111.761","0.817","NaN","0","243",NA
"151","R_b1M4YDN6mDd7Yqd","standard","2","68","LP","13.0392072382594","112.769","NaN","113.313","0.544","NaN","0","243",NA
"152","R_b1M4YDN6mDd7Yqd","standard","2","69","LP","13.0392072382594","114.32","NaN","114.901","0.581","NaN","0","243",NA
"153","R_b1M4YDN6mDd7Yqd","standard","2","70","LP","19.8235243429556","116.13","NaN","116.705","0.575","NaN","0","243",NA
"154","R_b1M4YDN6mDd7Yqd","standard","2","71","LP","3.49090909090909","117.719","NaN","118.101","0.382","NaN","0","243",NA
"155","R_b1M4YDN6mDd7Yqd","standard","2","72","LP","3.49090909090909","119.12","NaN","119.749","0.629","NaN","0","243",NA
"156","R_b1M4YDN6mDd7Yqd","standard","2","73","LP","2.15079707022835","120.753","NaN","121.354","0.601","NaN","0","243",NA
"157","R_b1M4YDN6mDd7Yqd","standard","2","74","LP","13.0392072382594","122.386","NaN","122.942","0.556","NaN","0","243",NA
"158","R_b1M4YDN6mDd7Yqd","standard","2","75","LP","5.5010771219302","123.945","NaN","124.652","0.707","NaN","0","243",NA
"159","R_b1M4YDN6mDd7Yqd","standard","2","76","LP","3.49090909090909","125.657","NaN","126.254","0.597","NaN","0","243",NA
"160","R_b1M4YDN6mDd7Yqd","standard","2","77","LP","3.49090909090909","127.285","NaN","127.927","0.642","NaN","0","243",NA
"161","R_b1M4YDN6mDd7Yqd","standard","2","78","LP","30","128.928","NaN","129.67","0.742","NaN","0","243",NA
"162","R_b1M4YDN6mDd7Yqd","standard","2","79","LP","5.5010771219302","130.7","NaN","131.229","0.529","NaN","0","243",NA
"163","R_b1M4YDN6mDd7Yqd","standard","2","80","LP","0.661783713916415","132.243","133.024","133.346","1.103","0.322","3","246",NA
"164","R_b1M4YDN6mDd7Yqd","standard","2","81","LP","13.0392072382594","134.352","NaN","134.922","0.57","NaN","0","246",NA
"165","R_b1M4YDN6mDd7Yqd","standard","2","82","LP","30","135.928","NaN","136.734","0.806","NaN","0","246",NA
"166","R_b1M4YDN6mDd7Yqd","standard","2","83","LP","3.49090909090909","137.745","NaN","138.334","0.589","NaN","0","246",NA
"167","R_b1M4YDN6mDd7Yqd","standard","2","84","LP","30","139.336","NaN","139.94","0.604","NaN","0","246",NA
"168","R_b1M4YDN6mDd7Yqd","standard","2","85","LP","19.8235243429556","140.944","NaN","141.454","0.51","NaN","0","246",NA
"169","R_b1M4YDN6mDd7Yqd","standard","2","86","LP","19.8235243429556","142.464","NaN","143.353","0.889","NaN","0","246",NA
"170","R_b1M4YDN6mDd7Yqd","standard","2","87","LP","5.5010771219302","144.369","NaN","144.944","0.575","NaN","0","246",NA
"171","R_b1M4YDN6mDd7Yqd","standard","2","88","LP","3.49090909090909","145.953","NaN","146.512","0.559","NaN","0","246",NA
"172","R_b1M4YDN6mDd7Yqd","standard","2","89","LP","13.0392072382594","147.527","NaN","148.112","0.585","NaN","0","246",NA
"173","R_b1M4YDN6mDd7Yqd","standard","2","90","LP","8.51632916846187","149.122","NaN","149.607","0.485","NaN","0","246",NA
"174","R_b1M4YDN6mDd7Yqd","standard","2","91","LP","5.5010771219302","150.887","NaN","151.472","0.585","NaN","0","246",NA
"175","R_b1M4YDN6mDd7Yqd","standard","2","92","LP","8.51632916846187","152.48","NaN","153.442","0.962","NaN","0","246",NA
"176","R_b1M4YDN6mDd7Yqd","standard","2","93","LP","30","154.449","NaN","155.301","0.852","NaN","0","246",NA
"177","R_b1M4YDN6mDd7Yqd","standard","2","94","LP","19.8235243429556","156.317","NaN","156.954","0.637","NaN","0","246",NA
"178","R_b1M4YDN6mDd7Yqd","standard","2","95","LP","0.661783713916415","157.961","158.625","158.791","0.83","0.166","3","249",NA
"179","R_b1M4YDN6mDd7Yqd","standard","2","96","LP","2.15079707022835","159.802","NaN","160.344","0.542","NaN","0","249",NA
"180","R_b1M4YDN6mDd7Yqd","standard","2","97","LP","3.49090909090909","161.344","NaN","162.169","0.825","NaN","0","249",NA
"181","R_b1M4YDN6mDd7Yqd","standard","2","98","LP","13.0392072382594","163.186","NaN","163.951","0.765","NaN","0","249",NA
"182","R_b1M4YDN6mDd7Yqd","standard","2","99","LP","8.51632916846187","164.961","NaN","165.611","0.65","NaN","0","249",NA
"183","R_b1M4YDN6mDd7Yqd","standard","2","100","LP","0.264713485566566","166.616","166.896","167.27","0.654","0.374","3","252",NA
"184","R_b1M4YDN6mDd7Yqd","standard","2","101","LP","0.264713485566566","168.283","168.552","168.86","0.577","0.308","3","255",NA
"185","R_b1M4YDN6mDd7Yqd","standard","2","102","LP","3.49090909090909","169.866","NaN","170.714","0.848","NaN","0","255",NA
"186","R_b1M4YDN6mDd7Yqd","standard","2","103","LP","19.8235243429556","171.719","NaN","172.566","0.847","NaN","0","255",NA
"187","R_b1M4YDN6mDd7Yqd","standard","2","104","LP","3.49090909090909","173.577","NaN","174.185","0.608","NaN","0","255",NA
"188","R_b1M4YDN6mDd7Yqd","standard","2","105","LP","5.5010771219302","175.2","NaN","175.751","0.551","NaN","0","255",NA
"189","R_b1M4YDN6mDd7Yqd","standard","2","106","LP","3.49090909090909","176.753","NaN","178.067","1.314","NaN","0","255",NA
"190","R_b1M4YDN6mDd7Yqd","standard","2","107","LP","30","179.085","NaN","180.167","1.082","NaN","0","255",NA
"191","R_b1M4YDN6mDd7Yqd","standard","2","108","LP","13.0392072382594","181.184","NaN","182.16","0.976","NaN","0","255",NA
"192","R_b1M4YDN6mDd7Yqd","standard","2","109","LP","0.661783713916415","183.183","183.848","184.07","0.887","0.222","3","258",NA
"193","R_b1M4YDN6mDd7Yqd","standard","2","110","LP","30","185.082","NaN","185.885","0.803","NaN","0","258",NA
"194","R_b1M4YDN6mDd7Yqd","standard","2","111","LP","13.0392072382594","186.901","NaN","187.961","1.06","NaN","0","258",NA
"195","R_b1M4YDN6mDd7Yqd","standard","2","112","LP","2.15079707022835","188.969","NaN","189.694","0.725","NaN","0","258",NA
"196","R_b1M4YDN6mDd7Yqd","standard","2","113","LP","5.5010771219302","190.834","NaN","191.459","0.625","NaN","0","258",NA
"197","R_b1M4YDN6mDd7Yqd","standard","2","114","LP","3.49090909090909","192.468","NaN","193.283","0.815","NaN","0","258",NA
"198","R_b1M4YDN6mDd7Yqd","standard","2","115","LP","1.25738905644119","194.298","NaN","195.251","0.953","NaN","0","258",NA
"199","R_b1M4YDN6mDd7Yqd","standard","2","116","LP","19.8235243429556","196.268","NaN","196.87","0.602","NaN","0","258",NA
"200","R_b1M4YDN6mDd7Yqd","standard","2","117","LP","3.49090909090909","197.884","NaN","199.054","1.17","NaN","0","258",NA
"201","R_b1M4YDN6mDd7Yqd","standard","2","118","LP","1.25738905644119","200.084","NaN","201.3","1.216","NaN","0","258",NA
"202","R_b1M4YDN6mDd7Yqd","standard","2","119","LP","5.5010771219302","202.315","NaN","203.585","1.27","NaN","0","258",NA
"203","R_b1M4YDN6mDd7Yqd","standard","2","120","LP","3.49090909090909","204.615","NaN","205.852","1.237","NaN","0","258",NA
"204","R_b1M4YDN6mDd7Yqd","standard","2","121","LP","3.49090909090909","206.858","NaN","208.092","1.234","NaN","0","258",NA
"205","R_b1M4YDN6mDd7Yqd","standard","2","122","LP","2.15079707022835","209.102","NaN","210.561","1.459","NaN","0","258",NA
"206","R_b1M4YDN6mDd7Yqd","standard","2","123","LP","2.15079707022835","211.57","NaN","212.788","1.218","NaN","0","258",NA
"207","R_b1M4YDN6mDd7Yqd","standard","2","124","LP","2.15079707022835","213.814","NaN","214.938","1.124","NaN","0","258",NA
"208","R_b1M4YDN6mDd7Yqd","standard","2","125","LP","3.49090909090909","215.945","NaN","216.921","0.976","NaN","0","258",NA
"209","R_b1M4YDN6mDd7Yqd","standard","2","126","LP","2.15079707022835","217.923","NaN","218.867","0.944","NaN","0","258",NA
"210","R_b1M4YDN6mDd7Yqd","standard","2","127","LP","0.264713485566566","219.89","220.172","220.896","1.006","0.724","3","261",NA
"211","R_b1M4YDN6mDd7Yqd","standard","2","128","LP","1.25738905644119","221.919","NaN","223.16","1.241","NaN","0","261",NA
"212","R_b1M4YDN6mDd7Yqd","standard","2","129","LP","19.8235243429556","224.166","NaN","224.911","0.745","NaN","0","261",NA
"213","R_b1M4YDN6mDd7Yqd","standard","2","130","LP","8.51632916846187","225.916","NaN","226.667","0.751","NaN","0","261",NA
"214","R_b1M4YDN6mDd7Yqd","standard","2","131","LP","19.8235243429556","227.684","NaN","228.579","0.895","NaN","0","261",NA
"215","R_b1M4YDN6mDd7Yqd","standard","2","132","LP","8.51632916846187","229.6","NaN","230.731","1.131","NaN","0","261",NA
"216","R_b1M4YDN6mDd7Yqd","standard","2","133","LP","8.51632916846187","231.734","NaN","232.372","0.638","NaN","0","261",NA
"217","R_b1M4YDN6mDd7Yqd","standard","2","134","LP","2.15079707022835","233.377","NaN","233.939","0.562","NaN","0","261",NA
"218","R_b1M4YDN6mDd7Yqd","standard","2","135","LP","3.49090909090909","234.946","NaN","235.544","0.598","NaN","0","261",NA
"219","R_b1M4YDN6mDd7Yqd","standard","2","136","LP","0.264713485566566","236.553","236.826","237.16","0.607","0.334","3","264",NA
"220","R_b1M4YDN6mDd7Yqd","standard","2","137","LP","0.661783713916415","238.161","NaN","238.59","0.429","NaN","0","264",NA
"221","R_b1M4YDN6mDd7Yqd","standard","2","138","LP","5.5010771219302","239.599","NaN","240.44","0.841","NaN","0","264",NA
"222","R_b1M4YDN6mDd7Yqd","standard","2","139","LP","19.8235243429556","241.45","NaN","242.073","0.623","NaN","0","264",NA
"223","R_b1M4YDN6mDd7Yqd","standard","2","140","LP","1.25738905644119","243.081","NaN","243.849","0.768","NaN","0","264",NA
"224","R_b1M4YDN6mDd7Yqd","standard","2","141","LP","8.51632916846187","244.857","NaN","245.483","0.626","NaN","0","264",NA
"225","R_b1M4YDN6mDd7Yqd","standard","2","142","LP","8.51632916846187","246.49","NaN","247.486","0.996","NaN","0","264",NA
"226","R_b1M4YDN6mDd7Yqd","standard","2","143","LP","8.51632916846187","248.495","NaN","249.33","0.835","NaN","0","264",NA
"227","R_b1M4YDN6mDd7Yqd","standard","2","144","LP","5.5010771219302","250.331","NaN","251.42","1.089","NaN","0","264",NA
"228","R_b1M4YDN6mDd7Yqd","standard","2","145","LP","8.51632916846187","252.626","NaN","253.781","1.155","NaN","0","264",NA
"229","R_b1M4YDN6mDd7Yqd","standard","2","146","LP","19.8235243429556","254.811","NaN","255.481","0.67","NaN","0","264",NA
"230","R_b1M4YDN6mDd7Yqd","standard","2","147","LP","8.51632916846187","256.496","NaN","257.439","0.943","NaN","0","264",NA
"231","R_b1M4YDN6mDd7Yqd","standard","2","148","LP","0.264713485566566","258.441","258.718","259.287","0.846","0.569","3","267",NA
"232","R_b1M4YDN6mDd7Yqd","standard","2","149","LP","0.264713485566566","260.296","260.583","261.264","0.968","0.681","3","270",NA
"233","R_b1M4YDN6mDd7Yqd","standard","2","150","LP","30","262.28","NaN","262.881","0.601","NaN","0","270",NA
"234","R_b1M4YDN6mDd7Yqd","standard","2","151","LP","13.0392072382594","263.897","NaN","264.46","0.563","NaN","0","270",NA
"235","R_b1M4YDN6mDd7Yqd","standard","2","152","LP","3.49090909090909","265.464","NaN","266.093","0.629","NaN","0","270",NA
"236","R_b1M4YDN6mDd7Yqd","standard","2","153","LP","1.25738905644119","267.097","NaN","267.8","0.703","NaN","0","270",NA
"237","R_b1M4YDN6mDd7Yqd","standard","2","154","LP","30","268.817","NaN","270.032","1.215","NaN","0","270",NA
"238","R_b1M4YDN6mDd7Yqd","standard","2","155","LP","3.49090909090909","271.033","NaN","271.798","0.765","NaN","0","270",NA
"239","R_b1M4YDN6mDd7Yqd","standard","2","156","LP","0.661783713916415","272.802","273.48","273.669","0.867","0.189","3","273",NA
"240","R_b1M4YDN6mDd7Yqd","standard","2","157","LP","30","274.681","NaN","276.78","2.099","NaN","0","273",NA
"241","R_b1M4YDN6mDd7Yqd","standard","2","158","LP","0.661783713916415","277.794","NaN","278.411","0.617","NaN","0","273",NA
"242","R_b1M4YDN6mDd7Yqd","standard","2","159","LP","19.8235243429556","279.414","NaN","280.354","0.94","NaN","0","273",NA
"243","R_b1M4YDN6mDd7Yqd","standard","2","160","LP","5.5010771219302","281.453","NaN","282.423","0.97","NaN","0","273",NA
"244","R_b1M4YDN6mDd7Yqd","standard","2","161","LP","0.264713485566566","283.435","283.71","284.032","0.597","0.322","3","276",NA
"245","R_b1M4YDN6mDd7Yqd","standard","2","162","LP","30","285.04","NaN","285.896","0.856","NaN","0","276",NA
"246","R_b1M4YDN6mDd7Yqd","standard","2","163","LP","30","286.905","NaN","287.533","0.628","NaN","0","276",NA
"247","R_b1M4YDN6mDd7Yqd","standard","2","164","LP","30","288.539","NaN","289.43","0.891","NaN","0","276",NA
"248","R_b1M4YDN6mDd7Yqd","standard","2","165","LP","5.5010771219302","290.431","NaN","291.014","0.583","NaN","0","276",NA
"249","R_b1M4YDN6mDd7Yqd","standard","2","166","LP","8.51632916846187","292.016","NaN","292.825","0.809","NaN","0","276",NA
"250","R_b1M4YDN6mDd7Yqd","standard","2","167","LP","13.0392072382594","293.831","NaN","294.441","0.61","NaN","0","276",NA
"251","R_b1M4YDN6mDd7Yqd","standard","2","168","LP","0.264713485566566","295.448","295.713","296.321","0.873","0.608","3","279",NA
"252","R_b1M4YDN6mDd7Yqd","standard","2","169","LP","0.264713485566566","297.329","297.614","297.795","0.466","0.181","3","282",NA
"253","R_b1M4YDN6mDd7Yqd","standard","2","170","LP","8.51632916846187","298.819","NaN","299.16","0.341","NaN","0","282",NA
"254","R_b1M4YDN6mDd7Yqd","standard","2","171","LP","19.8235243429556","300.168","NaN","300.692","0.524","NaN","0","282",NA
"255","R_b1M4YDN6mDd7Yqd","standard","2","172","LP","5.5010771219302","301.71","NaN","302.48","0.77","NaN","0","282",NA
"256","R_b1M4YDN6mDd7Yqd","standard","2","173","LP","8.51632916846187","303.51","NaN","304.253","0.743","NaN","0","282",NA
"257","R_b1M4YDN6mDd7Yqd","standard","2","174","LP","2.15079707022835","305.256","NaN","305.794","0.538","NaN","0","282",NA
"258","R_b1M4YDN6mDd7Yqd","standard","2","175","LP","8.51632916846187","306.811","NaN","307.496","0.685","NaN","0","282",NA
"259","R_b1M4YDN6mDd7Yqd","standard","2","176","LP","2.15079707022835","308.514","NaN","309.214","0.7","NaN","0","282",NA
"260","R_b1M4YDN6mDd7Yqd","standard","2","177","LP","19.8235243429556","310.214","NaN","310.763","0.549","NaN","0","282",NA
"261","R_b1M4YDN6mDd7Yqd","standard","2","178","LP","2.15079707022835","311.779","NaN","312.379","0.6","NaN","0","282",NA
"262","R_b1M4YDN6mDd7Yqd","standard","2","179","LP","3.49090909090909","313.409","NaN","313.964","0.555","NaN","0","282",NA
"263","R_b1M4YDN6mDd7Yqd","standard","2","180","LP","8.51632916846187","314.979","NaN","315.582","0.603","NaN","0","282",NA
"264","R_b1M4YDN6mDd7Yqd","standard","2","181","LP","19.8235243429556","316.596","NaN","317.275","0.679","NaN","0","282",NA
"265","R_b1M4YDN6mDd7Yqd","standard","2","182","LP","3.49090909090909","318.287","NaN","318.96","0.673","NaN","0","282",NA
"266","R_b1M4YDN6mDd7Yqd","standard","2","183","LP","3.49090909090909","319.961","NaN","320.892","0.931","NaN","0","282",NA
"267","R_b1M4YDN6mDd7Yqd","standard","2","184","LP","3.49090909090909","321.91","NaN","322.682","0.772","NaN","0","282",NA
"268","R_b1M4YDN6mDd7Yqd","standard","2","185","LP","30","323.69","NaN","324.334","0.644","NaN","0","282",NA
"269","R_b1M4YDN6mDd7Yqd","standard","2","186","LP","30","325.338","NaN","325.842","0.504","NaN","0","282",NA
"270","R_b1M4YDN6mDd7Yqd","standard","2","187","LP","0.661783713916415","326.849","NaN","327.464","0.615","NaN","0","282",NA
"271","R_b1M4YDN6mDd7Yqd","standard","2","188","LP","30","328.466","NaN","328.922","0.456","NaN","0","282",NA
"272","R_b1M4YDN6mDd7Yqd","standard","2","189","LP","8.51632916846187","329.929","NaN","330.551","0.622","NaN","0","282",NA
"273","R_b1M4YDN6mDd7Yqd","standard","2","190","LP","19.8235243429556","331.553","NaN","332.1","0.547","NaN","0","282",NA
"274","R_b1M4YDN6mDd7Yqd","standard","2","191","LP","13.0392072382594","333.116","NaN","333.722","0.606","NaN","0","282",NA
"275","R_b1M4YDN6mDd7Yqd","standard","2","192","LP","0.661783713916415","334.731","335.396","335.465","0.734","0.069","3","285",NA
"276","R_b1M4YDN6mDd7Yqd","standard","2","193","LP","5.5010771219302","336.48","NaN","337.11","0.63","NaN","0","285",NA
"277","R_b1M4YDN6mDd7Yqd","standard","2","194","LP","1.25738905644119","338.117","NaN","338.432","0.315","NaN","0","285",NA
"278","R_b1M4YDN6mDd7Yqd","standard","2","195","LP","2.15079707022835","339.433","NaN","339.901","0.468","NaN","0","285",NA
"279","R_b1M4YDN6mDd7Yqd","standard","2","196","LP","3.49090909090909","340.917","NaN","341.433","0.516","NaN","0","285",NA
"280","R_b1M4YDN6mDd7Yqd","standard","2","197","LP","0.264713485566566","342.442","342.708","342.977","0.535","0.269","3","288",NA
"281","R_b1M4YDN6mDd7Yqd","standard","2","198","LP","0.661783713916415","343.986","NaN","344.651","0.665","NaN","0","288",NA
"282","R_b1M4YDN6mDd7Yqd","standard","2","199","LP","2.15079707022835","345.657","NaN","347.231","1.574","NaN","0","288",NA
"283","R_b1M4YDN6mDd7Yqd","standard","2","200","LP","5.5010771219302","348.234","NaN","348.779","0.545","NaN","0","288",NA
"284","R_b1M4YDN6mDd7Yqd","standard","2","201","LP","8.51632916846187","349.804","NaN","350.763","0.959","NaN","0","288",NA
"285","R_b1M4YDN6mDd7Yqd","standard","2","202","LP","5.5010771219302","351.777","NaN","352.74","0.963","NaN","0","288",NA
"286","R_b1M4YDN6mDd7Yqd","standard","2","203","LP","5.5010771219302","353.761","NaN","354.431","0.67","NaN","0","288",NA
"287","R_b1M4YDN6mDd7Yqd","standard","2","204","LP","1.25738905644119","355.434","NaN","355.993","0.559","NaN","0","288",NA
"288","R_b1M4YDN6mDd7Yqd","standard","2","205","LP","5.5010771219302","357.009","NaN","357.523","0.514","NaN","0","288",NA
"289","R_b1M4YDN6mDd7Yqd","standard","2","206","LP","0.264713485566566","358.573","358.842","359.077","0.504","0.235","3","291",NA
"290","R_b1M4YDN6mDd7Yqd","standard","2","207","LP","2.15079707022835","360.093","NaN","360.744","0.651","NaN","0","291",NA
"291","R_b1M4YDN6mDd7Yqd","standard","2","208","LP","30","361.747","NaN","362.323","0.576","NaN","0","291",NA
"292","R_b1M4YDN6mDd7Yqd","standard","2","209","LP","2.15079707022835","363.336","NaN","364.259","0.923","NaN","0","291",NA
"293","R_b1M4YDN6mDd7Yqd","standard","2","210","LP","13.0392072382594","365.276","NaN","365.886","0.61","NaN","0","291",NA
"294","R_b1M4YDN6mDd7Yqd","standard","2","211","LP","13.0392072382594","366.895","NaN","367.268","0.373","NaN","0","291",NA
"295","R_b1M4YDN6mDd7Yqd","standard","2","212","LP","1.25738905644119","368.276","NaN","368.976","0.7","NaN","0","291",NA
"296","R_b1M4YDN6mDd7Yqd","standard","2","213","LP","5.5010771219302","369.993","NaN","370.678","0.685","NaN","0","291",NA
"297","R_b1M4YDN6mDd7Yqd","standard","2","214","LP","0.661783713916415","371.688","NaN","372.244","0.556","NaN","0","291",NA
"298","R_b1M4YDN6mDd7Yqd","standard","2","215","LP","30","373.26","NaN","373.839","0.579","NaN","0","291",NA
"299","R_b1M4YDN6mDd7Yqd","standard","2","216","LP","0.264713485566566","374.841","375.109","375.677","0.836","0.568","3","294",NA
"300","R_b1M4YDN6mDd7Yqd","standard","2","217","LP","13.0392072382594","376.688","NaN","377.232","0.544","NaN","0","294",NA
"301","R_b1M4YDN6mDd7Yqd","standard","2","218","LP","3.49090909090909","378.256","NaN","378.826","0.57","NaN","0","294",NA
"302","R_b1M4YDN6mDd7Yqd","standard","2","219","LP","8.51632916846187","379.833","NaN","380.552","0.719","NaN","0","294",NA
"303","R_b1M4YDN6mDd7Yqd","standard","2","220","LP","0.661783713916415","381.575","NaN","382.176","0.601","NaN","0","294",NA
"304","R_b1M4YDN6mDd7Yqd","standard","2","221","LP","0.264713485566566","383.207","383.49",NA,"1.304",NA,"0","294",NA
"305","R_b1M4YDN6mDd7Yqd","standard","2","222","LP","5.5010771219302","385.511","NaN","386.193","0.682","NaN","0","294",NA
"306","R_b1M4YDN6mDd7Yqd","standard","2","223","LP","30","387.357","NaN","387.919","0.562","NaN","0","294",NA
"307","R_b1M4YDN6mDd7Yqd","standard","2","224","LP","0.661783713916415","388.922","NaN","389.524","0.602","NaN","0","294",NA
"308","R_b1M4YDN6mDd7Yqd","standard","2","225","LP","19.8235243429556","390.527","NaN","391.176","0.649","NaN","0","294",NA
"309","R_b1M4YDN6mDd7Yqd","standard","2","226","LP","2.15079707022835","392.192","NaN","392.76","0.568","NaN","0","294",NA
"310","R_b1M4YDN6mDd7Yqd","standard","2","227","LP","3.49090909090909","393.776","NaN","394.581","0.805","NaN","0","294",NA
"311","R_b1M4YDN6mDd7Yqd","standard","2","228","LP","13.0392072382594","395.585","NaN","396.177","0.592","NaN","0","294",NA
"312","R_b1M4YDN6mDd7Yqd","standard","2","229","LP","2.15079707022835","397.192","NaN","397.759","0.567","NaN","0","294",NA
"313","R_b1M4YDN6mDd7Yqd","standard","2","230","LP","5.5010771219302","398.775","NaN","399.743","0.968","NaN","0","294",NA
"314","R_b1M4YDN6mDd7Yqd","standard","2","231","LP","1.25738905644119","400.745","NaN","401.301","0.556","NaN","0","294",NA
"315","R_b1M4YDN6mDd7Yqd","standard","2","232","LP","13.0392072382594","402.318","NaN","402.849","0.531","NaN","0","294",NA
"316","R_b1M4YDN6mDd7Yqd","standard","2","233","LP","30","403.858","NaN","404.191","0.333","NaN","0","294",NA
"317","R_b1M4YDN6mDd7Yqd","standard","2","234","LP","5.5010771219302","405.206","NaN","406.241","1.035","NaN","0","294",NA
"318","R_b1M4YDN6mDd7Yqd","standard","2","235","LP","2.15079707022835","407.249","NaN","407.953","0.704","NaN","0","294",NA
"319","R_b1M4YDN6mDd7Yqd","standard","2","236","LP","8.51632916846187","408.975","NaN","409.5","0.525","NaN","0","294",NA
"320","R_b1M4YDN6mDd7Yqd","standard","2","237","LP","3.49090909090909","410.508","NaN","411.447","0.939","NaN","0","294",NA
"321","R_b1M4YDN6mDd7Yqd","standard","2","238","LP","2.15079707022835","412.449","NaN","413.214","0.765","NaN","0","294",NA
"322","R_b1M4YDN6mDd7Yqd","standard","2","239","LP","5.5010771219302","414.217","NaN","414.874","0.657","NaN","0","294",NA
"323","R_b1M4YDN6mDd7Yqd","standard","2","240","LP","0.661783713916415","415.896","416.561","416.811","0.915","0.25","3","297",NA
"324","R_b1M4YDN6mDd7Yqd","standard","2","241","LP","30","417.812","NaN","418.69","0.878","NaN","0","297",NA
"325","R_b1M4YDN6mDd7Yqd","standard","2","242","LP","0.264713485566566","419.706","419.99","420.321","0.615","0.331","3","300",NA
"326","R_b1M4YDN6mDd7Yqd","standard","2","243","LP","0.264713485566566","421.325","421.599","421.864","0.539","0.265","3","303",NA
"327","R_b1M4YDN6mDd7Yqd","standard","2","244","LP","0.661783713916415","422.879","NaN","423.458","0.579","NaN","0","303",NA
"328","R_b1M4YDN6mDd7Yqd","standard","2","245","LP","1.25738905644119","424.476","NaN","424.991","0.515","NaN","0","303",NA
"329","R_b1M4YDN6mDd7Yqd","standard","2","246","LP","5.5010771219302","426.274","NaN","426.706","0.432","NaN","0","303",NA
"330","R_b1M4YDN6mDd7Yqd","standard","2","247","LP","19.8235243429556","427.715","NaN","428.297","0.582","NaN","0","303",NA
"331","R_b1M4YDN6mDd7Yqd","standard","2","248","LP","19.8235243429556","429.306","NaN","429.809","0.503","NaN","0","303",NA
"332","R_b1M4YDN6mDd7Yqd","standard","2","249","LP","13.0392072382594","430.812","NaN","431.494","0.682","NaN","0","303",NA
"333","R_b1M4YDN6mDd7Yqd","standard","2","250","LP","19.8235243429556","432.505","NaN","433.139","0.634","NaN","0","303",NA
"334","R_b1M4YDN6mDd7Yqd","standard","2","251","LP","30","434.146","NaN","434.692","0.546","NaN","0","303",NA
"335","R_b1M4YDN6mDd7Yqd","standard","2","252","LP","0.264713485566566","435.707","435.991","436.275","0.568","0.284","3","306",NA
"336","R_b1M4YDN6mDd7Yqd","standard","2","253","LP","1.25738905644119","437.282","NaN","437.82","0.538","NaN","0","306",NA
"337","R_b1M4YDN6mDd7Yqd","standard","2","254","LP","8.51632916846187","438.826","NaN","439.393","0.567","NaN","0","306",NA
"338","R_b1M4YDN6mDd7Yqd","standard","2","255","LP","5.5010771219302","440.405","NaN","440.975","0.57","NaN","0","306",NA
"339","R_b1M4YDN6mDd7Yqd","standard","2","256","LP","1.25738905644119","442.012","NaN","442.553","0.541","NaN","0","306",NA
"340","R_b1M4YDN6mDd7Yqd","standard","2","257","LP","8.51632916846187","443.554","NaN","444.224","0.67","NaN","0","306",NA
"341","R_b1M4YDN6mDd7Yqd","standard","2","258","LP","8.51632916846187","445.226","NaN","445.857","0.631","NaN","0","306",NA
"342","R_b1M4YDN6mDd7Yqd","standard","2","259","LP","0.661783713916415","446.873","NaN","447.491","0.618","NaN","0","306",NA
"343","R_b1M4YDN6mDd7Yqd","standard","2","260","LP","0.661783713916415","448.658","NaN","449.284","0.626","NaN","0","306",NA
"344","R_b1M4YDN6mDd7Yqd","standard","2","261","LP","5.5010771219302","450.29","NaN","450.843","0.553","NaN","0","306",NA
"345","R_b1M4YDN6mDd7Yqd","standard","2","262","LP","0.264713485566566","451.85","452.123","452.42","0.57","0.297","3","309",NA
"346","R_b1M4YDN6mDd7Yqd","standard","2","263","LP","19.8235243429556","453.426","NaN","454.181","0.755","NaN","0","309",NA
"347","R_b1M4YDN6mDd7Yqd","standard","2","264","LP","13.0392072382594","455.194","NaN","455.728","0.534","NaN","0","309",NA
"348","R_b1M4YDN6mDd7Yqd","standard","2","265","LP","2.15079707022835","456.729","NaN","457.373","0.644","NaN","0","309",NA
"349","R_b1M4YDN6mDd7Yqd","standard","2","266","LP","5.5010771219302","458.391","NaN","458.944","0.553","NaN","0","309",NA
"350","R_b1M4YDN6mDd7Yqd","standard","2","267","LP","5.5010771219302","459.946","NaN","460.533","0.587","NaN","0","309",NA
"351","R_b1M4YDN6mDd7Yqd","standard","2","268","LP","13.0392072382594","461.537","NaN","462.456","0.919","NaN","0","309",NA
"352","R_b1M4YDN6mDd7Yqd","standard","2","269","LP","19.8235243429556","463.477","NaN","463.755","0.278","NaN","0","309",NA
"353","R_b1M4YDN6mDd7Yqd","standard","2","270","LP","19.8235243429556","464.773","NaN","465.38","0.607","NaN","0","309",NA
"354","R_b1M4YDN6mDd7Yqd","standard","2","271","LP","19.8235243429556","466.634","NaN","467.057","0.423","NaN","0","309",NA
"355","R_b1M4YDN6mDd7Yqd","standard","2","272","LP","30","468.065","NaN","468.63","0.565","NaN","0","309",NA
"356","R_b1M4YDN6mDd7Yqd","standard","2","273","LP","3.49090909090909","469.634","NaN","470.58","0.946","NaN","0","309",NA
"357","R_b1M4YDN6mDd7Yqd","standard","2","274","LP","19.8235243429556","471.59","NaN","472.183","0.593","NaN","0","309",NA
"358","R_b1M4YDN6mDd7Yqd","standard","2","275","LP","1.25738905644119","473.205","NaN","473.758","0.553","NaN","0","309",NA
"359","R_b1M4YDN6mDd7Yqd","standard","2","276","LP","3.49090909090909","474.771","NaN","475.614","0.843","NaN","0","309",NA
"360","R_b1M4YDN6mDd7Yqd","standard","2","277","LP","19.8235243429556","476.618","NaN","477.458","0.84","NaN","0","309",NA
"361","R_b1M4YDN6mDd7Yqd","standard","2","278","LP","5.5010771219302","478.473","NaN","479.174","0.701","NaN","0","309",NA
"362","R_b1M4YDN6mDd7Yqd","standard","2","279","LP","19.8235243429556","480.178","NaN","480.731","0.553","NaN","0","309",NA
"363","R_b1M4YDN6mDd7Yqd","standard","2","280","LP","30","481.739","NaN","482.614","0.875","NaN","0","309",NA
"364","R_b1M4YDN6mDd7Yqd","standard","2","281","LP","8.51632916846187","483.618","NaN","484.301","0.683","NaN","0","309",NA
"365","R_b1M4YDN6mDd7Yqd","standard","2","282","LP","0.661783713916415","485.326","486.104","486.215","0.889","0.111","3","312",NA
"366","R_b1M4YDN6mDd7Yqd","standard","2","283","LP","0.264713485566566","487.216","487.49","488.098","0.882","0.608","3","315",NA
"367","R_b1M4YDN6mDd7Yqd","standard","2","284","LP","0.264713485566566","489.113","489.388","489.669","0.556","0.281","3","318",NA
"368","R_b1M4YDN6mDd7Yqd","standard","2","285","LP","0.264713485566566","490.676","490.944","491.529","0.853","0.585","3","321",NA
"369","R_b1M4YDN6mDd7Yqd","standard","2","286","LP","3.49090909090909","492.537","NaN","493.091","0.554","NaN","0","321",NA
"370","R_b1M4YDN6mDd7Yqd","standard","2","287","LP","30","494.103","NaN","495.341","1.238","NaN","0","321",NA
"371","R_b1M4YDN6mDd7Yqd","standard","2","288","LP","5.5010771219302","496.345","NaN","497.186","0.841","NaN","0","321",NA
"372","R_b1M4YDN6mDd7Yqd","standard","2","289","LP","5.5010771219302","498.203","NaN","498.796","0.593","NaN","0","321",NA
"373","R_b1M4YDN6mDd7Yqd","standard","2","290","LP","30","499.802","NaN","501.011","1.209","NaN","0","321",NA
"374","R_b1M4YDN6mDd7Yqd","standard","2","291","LP","0.264713485566566","502.016","502.301","502.921","0.905","0.62","3","324",NA
"375","R_b1M4YDN6mDd7Yqd","standard","2","292","LP","19.8235243429556","503.923","NaN","504.732","0.809","NaN","0","324",NA
"376","R_b1M4YDN6mDd7Yqd","standard","2","293","LP","13.0392072382594","505.737","NaN","507.241","1.504","NaN","0","324",NA
"377","R_b1M4YDN6mDd7Yqd","standard","2","294","LP","2.15079707022835","508.248","NaN","509.553","1.305","NaN","0","324",NA
"378","R_b1M4YDN6mDd7Yqd","standard","2","295","LP","5.5010771219302","510.56","NaN","511.961","1.401","NaN","0","324",NA
"379","R_b1M4YDN6mDd7Yqd","standard","2","296","LP","30","512.971","NaN","514.372","1.401","NaN","0","324",NA
"380","R_b1M4YDN6mDd7Yqd","standard","2","297","LP","2.15079707022835","515.388","NaN","516.917","1.529","NaN","0","324",NA
"381","R_b1M4YDN6mDd7Yqd","standard","2","298","LP","19.8235243429556","517.921","NaN","518.852","0.931","NaN","0","324",NA
"382","R_b1M4YDN6mDd7Yqd","standard","2","299","LP","5.5010771219302","519.87","NaN","520.804","0.934","NaN","0","324",NA
"383","R_b1M4YDN6mDd7Yqd","standard","2","300","LP","5.5010771219302","521.806","NaN","523.187","1.381","NaN","0","324",NA
"384","R_b1M4YDN6mDd7Yqd","standard","2","301","LP","5.5010771219302","524.202","NaN","525.141","0.939","NaN","0","324",NA
"385","R_b1M4YDN6mDd7Yqd","standard","2","302","LP","2.15079707022835","526.144","NaN","527.14","0.996","NaN","0","324",NA
"386","R_b1M4YDN6mDd7Yqd","standard","2","303","LP","3.49090909090909","528.145","NaN","529.219","1.074","NaN","0","324",NA
"387","R_b1M4YDN6mDd7Yqd","standard","2","304","LP","0.264713485566566","530.227","530.5","531.151","0.924","0.651","3","327",NA
"388","R_b1M4YDN6mDd7Yqd","standard","2","305","LP","8.51632916846187","532.152","NaN","533.01","0.858","NaN","0","327",NA
"389","R_b1M4YDN6mDd7Yqd","standard","2","306","LP","3.49090909090909","534.017","NaN","534.618","0.601","NaN","0","327",NA
"390","R_b1M4YDN6mDd7Yqd","standard","2","307","LP","0.264713485566566","535.622","535.901","536.187","0.565","0.286","3","330",NA
"391","R_b1M4YDN6mDd7Yqd","standard","2","308","LP","2.15079707022835","537.204","NaN","537.754","0.55","NaN","0","330",NA
"392","R_b1M4YDN6mDd7Yqd","standard","2","309","LP","0.661783713916415","538.761","NaN","539.35","0.589","NaN","0","330",NA
"393","R_b1M4YDN6mDd7Yqd","standard","2","310","LP","19.8235243429556","540.352","NaN","540.933","0.581","NaN","0","330",NA
"394","R_b1M4YDN6mDd7Yqd","standard","2","311","LP","19.8235243429556","541.938","NaN","542.725","0.787","NaN","0","330",NA
"395","R_b1M4YDN6mDd7Yqd","standard","2","312","LP","3.49090909090909","543.728","NaN","544.425","0.697","NaN","0","330",NA
"396","R_b1M4YDN6mDd7Yqd","standard","2","313","LP","13.0392072382594","545.432","NaN","546.57","1.138","NaN","0","330",NA
"397","R_b1M4YDN6mDd7Yqd","standard","2","314","LP","3.49090909090909","547.578","NaN","548.255","0.677","NaN","0","330",NA
"398","R_b1M4YDN6mDd7Yqd","standard","2","315","LP","2.15079707022835","549.269","NaN","549.954","0.685","NaN","0","330",NA
"399","R_b1M4YDN6mDd7Yqd","standard","2","316","LP","8.51632916846187","550.961","NaN","551.77","0.809","NaN","0","330",NA
"400","R_b1M4YDN6mDd7Yqd","standard","2","317","LP","0.661783713916415","552.791","NaN","553.436","0.645","NaN","0","330",NA
"401","R_b1M4YDN6mDd7Yqd","standard","2","318","LP","8.51632916846187","554.442","NaN","554.999","0.557","NaN","0","330",NA
"402","R_b1M4YDN6mDd7Yqd","standard","2","319","LP","3.49090909090909","556.016","NaN","556.659","0.643","NaN","0","330",NA
"403","R_b1M4YDN6mDd7Yqd","standard","2","320","LP","13.0392072382594","557.669","NaN","558.484","0.815","NaN","0","330",NA
"404","R_b1M4YDN6mDd7Yqd","standard","2","321","LP","30","559.505","NaN","560.49","0.985","NaN","0","330",NA
"405","R_b1M4YDN6mDd7Yqd","standard","2","322","LP","1.25738905644119","561.505","NaN","562.162","0.657","NaN","0","330",NA
"406","R_b1M4YDN6mDd7Yqd","standard","2","323","LP","0.661783713916415","563.17","NaN","563.749","0.579","NaN","0","330",NA
"407","R_b1M4YDN6mDd7Yqd","standard","2","324","LP","1.25738905644119","564.753","NaN","565.311","0.558","NaN","0","330",NA
"408","R_b1M4YDN6mDd7Yqd","standard","2","325","LP","0.661783713916415","566.383","567.049","567.231","0.848","0.182","3","333",NA
"409","R_b1M4YDN6mDd7Yqd","standard","2","326","LP","0.661783713916415","568.233","568.917","569.101","0.868","0.184","3","336",NA
"410","R_b1M4YDN6mDd7Yqd","standard","2","327","LP","1.25738905644119","570.11","NaN","571.067","0.957","NaN","0","336",NA
"411","R_b1M4YDN6mDd7Yqd","standard","2","328","LP","0.264713485566566","572.073","572.344","573.02","0.947","0.676","3","339",NA
"412","R_b1M4YDN6mDd7Yqd","standard","2","329","LP","0.661783713916415","574.025","574.689","575.369","1.344","0.68","3","342",NA
"413","R_b1M4YDN6mDd7Yqd","standard","2","330","LP","19.8235243429556","576.385","NaN","578.261","1.876","NaN","0","342",NA
"414","R_b1M4YDN6mDd7Yqd","standard","2","331","LP","2.15079707022835","579.265","NaN","580.661","1.396","NaN","0","342",NA
"415","R_b1M4YDN6mDd7Yqd","standard","2","332","LP","8.51632916846187","581.666","NaN","583.157","1.491","NaN","0","342",NA
"416","R_b1M4YDN6mDd7Yqd","standard","2","333","LP","0.264713485566566","584.168","584.435","585.04","0.872","0.605","3","345",NA
"417","R_b1M4YDN6mDd7Yqd","standard","2","334","LP","8.51632916846187","586.041","NaN","587.799","1.758","NaN","0","345",NA
"418","R_b1M4YDN6mDd7Yqd","standard","2","335","LP","1.25738905644119","588.815","NaN","590.066","1.251","NaN","0","345",NA
"419","R_b1M4YDN6mDd7Yqd","standard","2","336","LP","2.15079707022835","591.076","NaN","592.068","0.992","NaN","0","345",NA
"420","R_b1M4YDN6mDd7Yqd","standard","2","337","LP","0.661783713916415","593.08","593.745",NA,"1.674",NA,"0","345",NA
"421","R_b1M4YDN6mDd7Yqd","standard","2","338","LP","1.25738905644119","595.761","597.026","597.725","1.964","0.699","3","348",NA
"422","R_b1M4YDN6mDd7Yqd","standard","2","339","LP","3.49090909090909","598.728","NaN","599.98","1.252","NaN","0","348",NA
