"","subject_id","condition","n_block","n_trialIdx","f_timing_condition","n_scheduled_delay","n_trial_start_time","n_rewarded_time_fin","n_sell_time_fin","n_time_waited_fin","RT_fin","n_trial_earnings_fin","n_total_earnings_fin","keypress_times"
"1","R_b3CR3UgpXUP34tj","standard","1","1","LP","0.264713485566566","0.003","0.27","0.951","0.948","0.681","3","3",""
"2","R_b3CR3UgpXUP34tj","standard","1","2","LP","0.661783713916415","1.958","2.626","2.656","0.698","0.03","3","6",""
"3","R_b3CR3UgpXUP34tj","standard","1","3","LP","2.15079707022835","3.662","5.815","5.896","2.234","0.081","3","3","c(""16"", ""1389"")"
"4","R_b3CR3UgpXUP34tj","standard","1","4","LP","8.51632916846187","6.913","15.445","16.051","9.138","0.606","3","3","c(""487"", ""1014"", ""1612"", ""2224"", ""6433"", ""6889"", ""7881"")"
"5","R_b3CR3UgpXUP34tj","standard","1","5","LP","13.0392072382594","17.057","30.102","30.747","13.69","0.645","3","6",""
"6","R_b3CR3UgpXUP34tj","standard","1","6","LP","13.0392072382594","31.761","44.814","45.35","13.589","0.536","3","3","c(""3793"", ""4019"", ""4269"", ""4458"", ""4693"", ""4880"", ""7904"")"
"7","R_b3CR3UgpXUP34tj","standard","1","7","LP","13.0392072382594","46.358","59.49","59.994","13.636","0.504","3","3","984"
"8","R_b3CR3UgpXUP34tj","standard","1","8","LP","8.51632916846187","61.007","69.527","70.276","9.269","0.749","3","6",""
"9","R_b3CR3UgpXUP34tj","standard","1","9","LP","13.0392072382594","71.291","84.345","84.992","13.701","0.647","3","9",""
"10","R_b3CR3UgpXUP34tj","standard","1","10","LP","5.5010771219302","86.009","91.521","92.253","6.244","0.732","3","12",""
"11","R_b3CR3UgpXUP34tj","standard","1","11","LP","2.15079707022835","93.254","95.407","NA","3.158","NA","0","12",""
"12","R_b3CR3UgpXUP34tj","standard","1","12","LP","30","97.435","127.438","127.989","30.554","0.551","3","15",""
"13","R_b3CR3UgpXUP34tj","standard","1","13","LP","0.264713485566566","129.011","129.278","NA","1.27","NA","0","15",""
"14","R_b3CR3UgpXUP34tj","standard","1","14","LP","13.0392072382594","131.286","145.066","NA","15.652","NA","0","15",""
"15","R_b3CR3UgpXUP34tj","standard","1","15","LP","19.8235243429556","148.954","168.788","NA","20.852","NA","0","12","8080"
"16","R_b3CR3UgpXUP34tj","standard","1","16","LP","8.51632916846187","170.808","179.326","NA","9.526","NA","0","12",""
"17","R_b3CR3UgpXUP34tj","standard","1","17","LP","2.15079707022835","181.342","183.502","184.454","3.112","0.952","3","15",""
"18","R_b3CR3UgpXUP34tj","standard","1","18","LP","30","185.462","215.469","NA","31.027","NA","0","15",""
"19","R_b3CR3UgpXUP34tj","standard","1","19","LP","3.49090909090909","217.501","220.998","NA","4.506","NA","0","15",""
"20","R_b3CR3UgpXUP34tj","standard","1","20","LP","1.25738905644119","223.008","224.27","NA","2.271","NA","0","15",""
"21","R_b3CR3UgpXUP34tj","standard","1","21","LP","13.0392072382594","226.286","239.931","NA","14.663","NA","0","15",""
"22","R_b3CR3UgpXUP34tj","standard","1","22","LP","5.5010771219302","242.941","248.933","NA","6.993","NA","0","15",""
"23","R_b3CR3UgpXUP34tj","standard","1","23","LP","0.661783713916415","250.936","251.935","NA","2.992","NA","0","15",""
"24","R_b3CR3UgpXUP34tj","standard","1","24","LP","8.51632916846187","254.947","263.93","NA","9.997","NA","0","15",""
"25","R_b3CR3UgpXUP34tj","standard","1","25","LP","0.264713485566566","266.932","267.926","NA","1.995","NA","0","15",""
"26","R_b3CR3UgpXUP34tj","standard","1","26","LP","19.8235243429556","269.931","289.93","NA","22.028","NA","0","15",""
"27","R_b3CR3UgpXUP34tj","standard","1","27","LP","13.0392072382594","293.977","307.926","NA","14.959","NA","0","15",""
"28","R_b3CR3UgpXUP34tj","standard","1","28","LP","0.661783713916415","310.947","311.933","NA","2.981","NA","0","15",""
"29","R_b3CR3UgpXUP34tj","standard","1","29","LP","1.25738905644119","314.941","316.941","NA","3.994","NA","0","15",""
"30","R_b3CR3UgpXUP34tj","standard","1","30","LP","8.51632916846187","320.929","329.935","NA","10.014","NA","0","15",""
"31","R_b3CR3UgpXUP34tj","standard","1","31","LP","1.25738905644119","331.951","333.217","334.097","2.146","0.88","3","18",""
"32","R_b3CR3UgpXUP34tj","standard","1","32","LP","30","335.114","365.118","365.618","30.504","0.5","3","21",""
"33","R_b3CR3UgpXUP34tj","standard","1","33","LP","0.661783713916415","366.623","367.295","NA","1.762","NA","0","21",""
"34","R_b3CR3UgpXUP34tj","standard","1","34","LP","5.5010771219302","369.932","375.449","NA","6.518","NA","0","18","931"
"35","R_b3CR3UgpXUP34tj","standard","1","35","LP","5.5010771219302","377.447","382.951","NA","6.513","NA","0","18",""
"36","R_b3CR3UgpXUP34tj","standard","1","36","LP","5.5010771219302","384.98","390.502","NA","6.536","NA","0","18",""
"37","R_b3CR3UgpXUP34tj","standard","1","37","LP","0.264713485566566","392.519","392.795","NA","1.295","NA","0","18",""
"38","R_b3CR3UgpXUP34tj","standard","1","38","LP","5.5010771219302","394.815","400.319","NA","6.514","NA","0","18",""
"39","R_b3CR3UgpXUP34tj","standard","1","39","LP","2.15079707022835","402.334","404.487","NA","3.178","NA","0","18",""
"40","R_b3CR3UgpXUP34tj","standard","1","40","LP","2.15079707022835","406.513","408.67","NA","3.168","NA","0","18",""
"41","R_b3CR3UgpXUP34tj","standard","1","41","LP","8.51632916846187","410.697","419.251","419.933","9.236","0.682","3","21",""
"42","R_b3CR3UgpXUP34tj","standard","1","42","LP","8.51632916846187","420.943","429.478","NA","9.546","NA","0","21",""
"43","R_b3CR3UgpXUP34tj","standard","1","43","LP","19.8235243429556","431.495","451.326","NA","20.834","NA","0","21",""
"44","R_b3CR3UgpXUP34tj","standard","1","44","LP","0.264713485566566","453.335","453.618","NA","1.288","NA","0","21",""
"45","R_b3CR3UgpXUP34tj","standard","1","45","LP","3.49090909090909","455.627","459.118","NA","4.5","NA","0","21",""
"46","R_b3CR3UgpXUP34tj","standard","1","46","LP","30","461.129","491.133","NA","31.015","NA","0","21",""
"47","R_b3CR3UgpXUP34tj","standard","1","47","LP","1.25738905644119","493.149","494.413","NA","2.33","NA","0","21",""
"48","R_b3CR3UgpXUP34tj","standard","1","48","LP","5.5010771219302","496.486","501.993","NA","6.522","NA","0","21",""
"49","R_b3CR3UgpXUP34tj","standard","1","49","LP","1.25738905644119","504.01","505.27","NA","2.282","NA","0","21",""
"50","R_b3CR3UgpXUP34tj","standard","1","50","LP","0.264713485566566","507.294","507.575","NA","1.298","NA","0","21",""
"51","R_b3CR3UgpXUP34tj","standard","1","51","LP","0.264713485566566","509.598","509.874","NA","1.293","NA","0","21",""
"52","R_b3CR3UgpXUP34tj","standard","1","52","LP","19.8235243429556","511.893","531.931","NA","22.036","NA","0","21",""
"53","R_b3CR3UgpXUP34tj","standard","1","53","LP","1.25738905644119","534.938","536.938","NA","3.994","NA","0","21",""
"54","R_b3CR3UgpXUP34tj","standard","1","54","LP","0.661783713916415","539.946","540.932","NA","1.999","NA","0","21",""
"55","R_b3CR3UgpXUP34tj","standard","1","55","LP","13.0392072382594","543.937","557.932","NA","15.018","NA","0","21",""
"56","R_b3CR3UgpXUP34tj","standard","1","56","LP","2.15079707022835","560.928","563.927","NA","4.003","NA","0","21",""
"57","R_b3CR3UgpXUP34tj","standard","1","57","LP","5.5010771219302","565.931","571.927","NA","7.008","NA","0","21",""
"58","R_b3CR3UgpXUP34tj","standard","1","58","LP","5.5010771219302","574.945","580.928","NA","6.99","NA","0","21",""
"59","R_b3CR3UgpXUP34tj","standard","1","59","LP","0.661783713916415","583.926","584.933","NA","3.003","NA","0","21",""
"60","R_b3CR3UgpXUP34tj","standard","1","60","LP","0.661783713916415","587.931","588.931","NA","3.037","NA","0","21",""
"61","R_b3CR3UgpXUP34tj","standard","1","61","LP","8.51632916846187","592.931","601.931","NA","10.001","NA","0","21",""
"62","R_b3CR3UgpXUP34tj","standard","1","62","LP","13.0392072382594","603.946","617.932","NA","15.997","NA","0","21",""
"63","R_b3CR3UgpXUP34tj","standard","1","63","LP","0.661783713916415","621.933","622.926","NA","2.002","NA","0","21",""
"64","R_b3CR3UgpXUP34tj","standard","1","64","LP","8.51632916846187","624.988","633.931","NA","9.945","NA","0","21",""
"65","R_b3CR3UgpXUP34tj","standard","1","65","LP","2.15079707022835","635.934","638.926","NA","3.997","NA","0","21",""
"66","R_b3CR3UgpXUP34tj","standard","1","66","LP","8.51632916846187","640.932","649.933","NA","10.002","NA","0","21",""
"67","R_b3CR3UgpXUP34tj","standard","1","67","LP","0.661783713916415","651.941","652.932","NA","2.993","NA","0","21",""
"68","R_b3CR3UgpXUP34tj","standard","1","68","LP","2.15079707022835","656.931","659.934","NA","4.004","NA","0","21",""
"69","R_b3CR3UgpXUP34tj","standard","1","69","LP","3.49090909090909","661.936","665.933","NA","4.998","NA","0","21",""
"70","R_b3CR3UgpXUP34tj","standard","1","70","LP","13.0392072382594","668.931","682.954","NA","16.008","NA","0","21",""
"71","R_b3CR3UgpXUP34tj","standard","1","71","LP","2.15079707022835","686.937","689.932","NA","3.995","NA","0","21",""
"72","R_b3CR3UgpXUP34tj","standard","1","72","LP","3.49090909090909","691.941","695.926","NA","4.994","NA","0","21",""
"73","R_b3CR3UgpXUP34tj","standard","1","73","LP","0.661783713916415","698.933","699.931","NA","2.002","NA","0","21",""
"74","R_b3CR3UgpXUP34tj","standard","1","74","LP","0.661783713916415","702.933","703.932","NA","2.017","NA","0","21",""
"75","R_b3CR3UgpXUP34tj","standard","1","75","LP","2.15079707022835","706.293","708.445","709.198","2.905","0.753","3","24",""
"76","R_b3CR3UgpXUP34tj","standard","1","76","LP","13.0392072382594","710.207","723.263","NA","14.064","NA","0","24",""
"77","R_b3CR3UgpXUP34tj","standard","1","77","LP","3.49090909090909","725.291","728.783","NA","4.512","NA","0","24",""
"78","R_b3CR3UgpXUP34tj","standard","1","78","LP","30","730.817","760.818","NA","31.006","NA","0","24",""
"79","R_b3CR3UgpXUP34tj","standard","1","79","LP","30","762.831","792.839","NA","31.034","NA","0","24",""
"80","R_b3CR3UgpXUP34tj","standard","1","80","LP","2.15079707022835","794.88","797.038","NA","3.171","NA","0","24",""
"81","R_b3CR3UgpXUP34tj","standard","1","81","LP","1.25738905644119","799.054","800.313","NA","2.266","NA","0","24",""
"82","R_b3CR3UgpXUP34tj","standard","1","82","LP","2.15079707022835","802.326","804.479","NA","3.16","NA","0","24",""
"83","R_b3CR3UgpXUP34tj","standard","1","83","LP","0.661783713916415","806.495","807.166","NA","1.683","NA","0","24",""
"84","R_b3CR3UgpXUP34tj","standard","1","84","LP","1.25738905644119","809.183","810.446","NA","2.275","NA","0","24",""
"85","R_b3CR3UgpXUP34tj","standard","1","85","LP","3.49090909090909","812.463","815.958","NA","4.521","NA","0","24",""
"86","R_b3CR3UgpXUP34tj","standard","1","86","LP","13.0392072382594","817.994","831.039","NA","14.053","NA","0","24",""
"87","R_b3CR3UgpXUP34tj","standard","1","87","LP","30","833.063","863.079","NA","31.025","NA","0","24",""
"88","R_b3CR3UgpXUP34tj","standard","1","88","LP","0.264713485566566","865.094","865.366","NA","1.291","NA","0","24",""
"89","R_b3CR3UgpXUP34tj","standard","1","89","LP","13.0392072382594","867.393","880.439","NA","14.055","NA","0","24",""
"90","R_b3CR3UgpXUP34tj","standard","1","90","LP","1.25738905644119","882.455","883.716","NA","2.292","NA","0","24",""
"91","R_b3CR3UgpXUP34tj","standard","1","91","LP","2.15079707022835","885.75","887.903","NA","3.168","NA","0","24",""
"92","R_b3CR3UgpXUP34tj","standard","1","92","LP","0.661783713916415","889.919","890.587","NA","1.673","NA","0","24",""
"93","R_b3CR3UgpXUP34tj","standard","1","93","LP","3.49090909090909","892.607","896.109","NA","4.505","NA","0","24",""
"94","R_b3CR3UgpXUP34tj","standard","2","1","LP","3.49090909090909","0","NaN","1.071","1.071","NaN","0","27",NA
"95","R_b3CR3UgpXUP34tj","standard","2","2","LP","19.8235243429556","2.079","NaN","2.692","0.613","NaN","0","27",NA
"96","R_b3CR3UgpXUP34tj","standard","2","3","LP","3.49090909090909","3.701","NaN","3.752","0.051","NaN","0","27",NA
"97","R_b3CR3UgpXUP34tj","standard","2","4","LP","5.5010771219302","4.766","NaN","5.022","0.256","NaN","0","27",NA
"98","R_b3CR3UgpXUP34tj","standard","2","5","LP","5.5010771219302","6.03","NaN","6.139","0.109","NaN","0","27",NA
"99","R_b3CR3UgpXUP34tj","standard","2","6","LP","5.5010771219302","7.141","NaN","7.319","0.178","NaN","0","27",NA
"100","R_b3CR3UgpXUP34tj","standard","2","7","LP","3.49090909090909","8.326","11.817","12.404","4.078","0.587","3","30",NA
"101","R_b3CR3UgpXUP34tj","standard","2","8","LP","8.51632916846187","13.417","21.942",NA,"9.534",NA,"0","30",NA
"102","R_b3CR3UgpXUP34tj","standard","2","9","LP","19.8235243429556","23.957","43.782",NA,"20.833",NA,"0","30",NA
"103","R_b3CR3UgpXUP34tj","standard","2","10","LP","13.0392072382594","45.812","58.854",NA,"15.015",NA,"0","30",NA
"104","R_b3CR3UgpXUP34tj","standard","2","11","LP","2.15079707022835","62.826","65.826",NA,"4.002",NA,"0","30",NA
"105","R_b3CR3UgpXUP34tj","standard","2","12","LP","1.25738905644119","68.85","70.834",NA,"3",NA,"0","30",NA
"106","R_b3CR3UgpXUP34tj","standard","2","13","LP","0.264713485566566","73.834","74.826",NA,"1.997",NA,"0","30",NA
"107","R_b3CR3UgpXUP34tj","standard","2","14","LP","2.15079707022835","76.845","79.833",NA,"4.978",NA,"0","30",NA
"108","R_b3CR3UgpXUP34tj","standard","2","15","LP","3.49090909090909","82.831","86.843",NA,"5.995",NA,"0","30",NA
"109","R_b3CR3UgpXUP34tj","standard","2","16","LP","8.51632916846187","89.826","98.821",NA,"9.998",NA,"0","30",NA
"110","R_b3CR3UgpXUP34tj","standard","2","17","LP","0.264713485566566","101.837","102.822",NA,"1.995",NA,"0","30",NA
"111","R_b3CR3UgpXUP34tj","standard","2","18","LP","3.49090909090909","105.838","109.822",NA,"4.998",NA,"0","30",NA
"112","R_b3CR3UgpXUP34tj","standard","2","19","LP","0.661783713916415","111.852","112.823",NA,"1.977",NA,"0","30",NA
"113","R_b3CR3UgpXUP34tj","standard","2","20","LP","30","115.023","145.826",NA,"31.803",NA,"0","30",NA
"114","R_b3CR3UgpXUP34tj","standard","2","21","LP","0.264713485566566","148.827","149.826",NA,"2.005",NA,"0","30",NA
"115","R_b3CR3UgpXUP34tj","standard","2","22","LP","5.5010771219302","152.838","158.825",NA,"7.049",NA,"0","30",NA
"116","R_b3CR3UgpXUP34tj","standard","2","23","LP","2.15079707022835","161.827","164.822",NA,"4.031",NA,"0","30",NA
"117","R_b3CR3UgpXUP34tj","standard","2","24","LP","30","166.933","197.826",NA,"31.9",NA,"0","30",NA
"118","R_b3CR3UgpXUP34tj","standard","2","25","LP","13.0392072382594","200.821","214.835",NA,"15.043",NA,"0","30",NA
"119","R_b3CR3UgpXUP34tj","standard","2","26","LP","13.0392072382594","217.823","231.824",NA,"16.003",NA,"0","30",NA
"120","R_b3CR3UgpXUP34tj","standard","2","27","LP","1.25738905644119","234.827","236.821",NA,"3.001",NA,"0","30",NA
"121","R_b3CR3UgpXUP34tj","standard","2","28","LP","30","238.831","269.83",NA,"33.007",NA,"0","30",NA
"122","R_b3CR3UgpXUP34tj","standard","2","29","LP","3.49090909090909","273.822","277.826",NA,"5.004",NA,"0","30",NA
"123","R_b3CR3UgpXUP34tj","standard","2","30","LP","2.15079707022835","279.829","282.827",NA,"4.009",NA,"0","30",NA
"124","R_b3CR3UgpXUP34tj","standard","2","31","LP","8.51632916846187","285.826","294.826",NA,"10.008",NA,"0","30",NA
"125","R_b3CR3UgpXUP34tj","standard","2","32","LP","30","297.828","327.85",NA,"32.007",NA,"0","30",NA
"126","R_b3CR3UgpXUP34tj","standard","2","33","LP","3.49090909090909","331.827","335.827",NA,"5.995",NA,"0","30",NA
"127","R_b3CR3UgpXUP34tj","standard","2","34","LP","13.0392072382594","338.827","352.833",NA,"16.001",NA,"0","30",NA
"128","R_b3CR3UgpXUP34tj","standard","2","35","LP","19.8235243429556","356.825","401.827",NA,"85.944",NA,"0","30",NA
"129","R_b3CR3UgpXUP34tj","standard","2","36","LP","5.5010771219302","443.773","449.282",NA,"6.513",NA,"0","30",NA
"130","R_b3CR3UgpXUP34tj","standard","2","37","LP","13.0392072382594","451.299","464.342",NA,"14.052",NA,"0","30",NA
"131","R_b3CR3UgpXUP34tj","standard","2","38","LP","0.264713485566566","466.357","466.629",NA,"1.281",NA,"0","30",NA
"132","R_b3CR3UgpXUP34tj","standard","2","39","LP","8.51632916846187","468.646","477.165",NA,"9.536",NA,"0","30",NA
"133","R_b3CR3UgpXUP34tj","standard","2","40","LP","2.15079707022835","479.19","481.341",NA,"3.151",NA,"0","30",NA
"134","R_b3CR3UgpXUP34tj","standard","2","41","LP","0.264713485566566","483.342","483.614",NA,"1.28",NA,"0","30",NA
"135","R_b3CR3UgpXUP34tj","standard","2","42","LP","5.5010771219302","485.63","491.134",NA,"6.556",NA,"0","30",NA
"136","R_b3CR3UgpXUP34tj","standard","2","43","LP","8.51632916846187","493.201","501.725",NA,"9.525",NA,"0","30",NA
"137","R_b3CR3UgpXUP34tj","standard","2","44","LP","19.8235243429556","503.732","523.558",NA,"20.834",NA,"0","30",NA
"138","R_b3CR3UgpXUP34tj","standard","2","45","LP","0.264713485566566","525.58","525.846",NA,"1.277",NA,"0","30",NA
"139","R_b3CR3UgpXUP34tj","standard","2","46","LP","8.51632916846187","527.862","536.395",NA,"9.55",NA,"0","30",NA
"140","R_b3CR3UgpXUP34tj","standard","2","47","LP","3.49090909090909","538.423","541.915",NA,"4.494",NA,"0","30",NA
"141","R_b3CR3UgpXUP34tj","standard","2","48","LP","1.25738905644119","543.917","545.196",NA,"2.294",NA,"0","30",NA
"142","R_b3CR3UgpXUP34tj","standard","2","49","LP","30","547.212","577.213",NA,"31.003",NA,"0","30",NA
"143","R_b3CR3UgpXUP34tj","standard","2","50","LP","3.49090909090909","579.218","582.718",NA,"4.508",NA,"0","30",NA
"144","R_b3CR3UgpXUP34tj","standard","2","51","LP","0.661783713916415","584.726","585.392",NA,"1.68",NA,"0","30",NA
"145","R_b3CR3UgpXUP34tj","standard","2","52","LP","0.661783713916415","587.409","588.077",NA,"1.677",NA,"0","30",NA
"146","R_b3CR3UgpXUP34tj","standard","2","53","LP","0.661783713916415","590.097","590.765",NA,"1.683",NA,"0","30",NA
