"","subject_id","condition","n_block","n_trialIdx","f_timing_condition","n_scheduled_delay","n_trial_start_time","n_rewarded_time_fin","n_sell_time_fin","n_time_waited_fin","RT_fin","n_trial_earnings_fin","n_total_earnings_fin","keypress_times"
"1","R_cAcuMbA8KxJ1gcN","standard","1","1","HP","8","0.002","8.005","8.291","8.289","0.286","3","3",""
"2","R_cAcuMbA8KxJ1gcN","standard","1","2","HP","6","9.293","15.3","15.603","6.31","0.303","3","6",""
"3","R_cAcuMbA8KxJ1gcN","standard","1","3","HP","4","16.608","20.617","20.925","4.317","0.308","3","9",""
"4","R_cAcuMbA8KxJ1gcN","standard","1","4","HP","12","21.93","33.936","34.284","12.354","0.348","3","12",""
"5","R_cAcuMbA8KxJ1gcN","standard","1","5","HP","6","35.301","41.324","41.657","6.356","0.333","3","15",""
"6","R_cAcuMbA8KxJ1gcN","standard","1","6","HP","14","42.661","56.669","56.974","14.313","0.305","3","18",""
"7","R_cAcuMbA8KxJ1gcN","standard","1","7","HP","12","57.994","69.997","70.348","12.354","0.351","3","21",""
"8","R_cAcuMbA8KxJ1gcN","standard","1","8","HP","4","71.357","75.365","75.693","4.336","0.328","3","24",""
"9","R_cAcuMbA8KxJ1gcN","standard","1","9","HP","12","76.701","88.716","89.044","12.343","0.328","3","27",""
"10","R_cAcuMbA8KxJ1gcN","standard","1","10","HP","18","90.053","108.068","108.367","18.314","0.299","3","30",""
"11","R_cAcuMbA8KxJ1gcN","standard","1","11","HP","6","109.372","115.381","115.712","6.34","0.331","3","33",""
"12","R_cAcuMbA8KxJ1gcN","standard","1","12","HP","16","116.723","132.729","133.015","16.292","0.286","3","36",""
"13","R_cAcuMbA8KxJ1gcN","standard","1","13","HP","18","134.022","152.033","152.863","18.841","0.83","3","33","c(""4016"", ""4489"")"
"14","R_cAcuMbA8KxJ1gcN","standard","1","14","HP","18","153.868","171.877","172.141","18.273","0.264","3","36",""
"15","R_cAcuMbA8KxJ1gcN","standard","1","15","HP","14","173.149","187.159","187.547","14.398","0.388","3","39",""
"16","R_cAcuMbA8KxJ1gcN","standard","1","16","HP","8","188.559","196.565","196.848","8.289","0.283","3","42",""
"17","R_cAcuMbA8KxJ1gcN","standard","1","17","HP","18","197.853","215.867","216.383","18.53","0.516","3","45",""
"18","R_cAcuMbA8KxJ1gcN","standard","1","18","HP","6","217.389","223.397","224","6.611","0.603","3","48",""
"19","R_cAcuMbA8KxJ1gcN","standard","1","19","HP","12","225.005","237.005","237.344","12.339","0.339","3","51",""
"20","R_cAcuMbA8KxJ1gcN","standard","1","20","HP","16","238.349","254.358","254.622","16.273","0.264","3","54",""
"21","R_cAcuMbA8KxJ1gcN","standard","1","21","HP","8","255.631","263.636","263.992","8.361","0.356","3","57",""
"22","R_cAcuMbA8KxJ1gcN","standard","1","22","HP","18","264.997","283.005","283.367","18.37","0.362","3","60",""
"23","R_cAcuMbA8KxJ1gcN","standard","1","23","HP","14","284.373","298.38","298.679","14.306","0.299","3","63",""
"24","R_cAcuMbA8KxJ1gcN","standard","1","24","HP","16","299.689","315.706","316.173","16.484","0.467","3","66",""
"25","R_cAcuMbA8KxJ1gcN","standard","1","25","HP","2","317.182","319.191","319.709","2.527","0.518","3","69",""
"26","R_cAcuMbA8KxJ1gcN","standard","1","26","HP","4","320.71","324.71","325.102","4.392","0.392","3","72",""
"27","R_cAcuMbA8KxJ1gcN","standard","1","27","HP","8","326.109","334.118","334.467","8.358","0.349","3","75",""
"28","R_cAcuMbA8KxJ1gcN","standard","1","28","HP","2","335.484","337.493","338.36","2.876","0.867","3","78",""
"29","R_cAcuMbA8KxJ1gcN","standard","1","29","HP","20","339.365","359.376","359.698","20.333","0.322","3","81",""
"30","R_cAcuMbA8KxJ1gcN","standard","1","30","HP","10","360.707","370.721","371.059","10.352","0.338","3","84",""
"31","R_cAcuMbA8KxJ1gcN","standard","1","31","HP","14","372.061","386.068","386.396","14.335","0.328","3","87",""
"32","R_cAcuMbA8KxJ1gcN","standard","1","32","HP","4","387.404","391.406","391.802","4.398","0.396","3","90",""
"33","R_cAcuMbA8KxJ1gcN","standard","1","33","HP","6","392.807","398.808","399.104","6.297","0.296","3","93",""
"34","R_cAcuMbA8KxJ1gcN","standard","1","34","HP","16","400.111","416.112","416.437","16.326","0.325","3","96",""
"35","R_cAcuMbA8KxJ1gcN","standard","1","35","HP","20","417.445","437.452","437.735","20.29","0.283","3","99",""
"36","R_cAcuMbA8KxJ1gcN","standard","1","36","HP","8","438.74","446.749","447.148","8.408","0.399","3","102",""
"37","R_cAcuMbA8KxJ1gcN","standard","1","37","HP","4","448.152","452.156","452.526","4.374","0.37","3","105",""
"38","R_cAcuMbA8KxJ1gcN","standard","1","38","HP","6","453.529","459.546","459.88","6.351","0.334","3","108",""
"39","R_cAcuMbA8KxJ1gcN","standard","1","39","HP","8","460.884","468.898","469.208","8.324","0.31","3","111",""
"40","R_cAcuMbA8KxJ1gcN","standard","1","40","HP","16","470.227","486.229","486.602","16.375","0.373","3","114",""
"41","R_cAcuMbA8KxJ1gcN","standard","1","41","HP","18","487.604","505.605","505.938","18.334","0.333","3","117",""
"42","R_cAcuMbA8KxJ1gcN","standard","1","42","HP","8","506.94","514.955","515.4","8.46","0.445","3","120",""
"43","R_cAcuMbA8KxJ1gcN","standard","1","43","HP","4","516.405","520.405","520.862","4.457","0.457","3","123",""
"44","R_cAcuMbA8KxJ1gcN","standard","1","44","HP","2","521.868","523.877","524.275","2.407","0.398","3","126",""
"45","R_cAcuMbA8KxJ1gcN","standard","1","45","HP","14","525.29","539.293","539.669","14.379","0.376","3","129",""
"46","R_cAcuMbA8KxJ1gcN","standard","1","46","HP","20","540.683","560.685","560.947","20.264","0.262","3","132",""
"47","R_cAcuMbA8KxJ1gcN","standard","1","47","HP","10","561.948","571.956","572.35","10.402","0.394","3","135",""
"48","R_cAcuMbA8KxJ1gcN","standard","1","48","HP","12","573.356","585.366","585.672","12.316","0.306","3","138",""
"49","R_cAcuMbA8KxJ1gcN","standard","1","49","HP","8","586.68","594.684","595.354","8.674","0.67","3","141",""
"50","R_cAcuMbA8KxJ1gcN","standard","1","50","HP","18","596.356","614.375","614.677","18.321","0.302","3","144",""
"51","R_cAcuMbA8KxJ1gcN","standard","1","51","HP","6","615.685","621.692","622.025","6.34","0.333","3","147",""
"52","R_cAcuMbA8KxJ1gcN","standard","1","52","HP","18","623.029","641.04","641.328","18.299","0.288","3","150",""
"53","R_cAcuMbA8KxJ1gcN","standard","1","53","HP","2","642.334","644.339","644.724","2.39","0.385","3","153",""
"54","R_cAcuMbA8KxJ1gcN","standard","1","54","HP","8","645.729","653.734","654.433","8.704","0.699","3","156",""
"55","R_cAcuMbA8KxJ1gcN","standard","1","55","HP","4","655.443","659.444","659.922","4.479","0.478","3","159",""
"56","R_cAcuMbA8KxJ1gcN","standard","1","56","HP","12","660.925","672.939","673.303","12.378","0.364","3","162",""
"57","R_cAcuMbA8KxJ1gcN","standard","1","57","HP","20","674.309","694.309","694.653","20.344","0.344","3","165",""
"58","R_cAcuMbA8KxJ1gcN","standard","1","58","HP","12","695.661","707.668","708.21","12.549","0.542","3","168",""
"59","R_cAcuMbA8KxJ1gcN","standard","1","59","HP","12","709.212","721.225","721.543","12.331","0.318","3","171",""
"60","R_cAcuMbA8KxJ1gcN","standard","1","60","HP","14","722.561","736.565","736.926","14.365","0.361","3","174",""
"61","R_cAcuMbA8KxJ1gcN","standard","1","61","HP","6","737.94","743.948","744.338","6.398","0.39","3","177",""
"62","R_cAcuMbA8KxJ1gcN","standard","1","62","HP","4","745.34","749.349","749.847","4.507","0.498","3","180",""
"63","R_cAcuMbA8KxJ1gcN","standard","1","63","HP","20","750.852","770.863","771.212","20.36","0.349","3","183",""
"64","R_cAcuMbA8KxJ1gcN","standard","1","64","HP","18","772.22","790.228","790.639","18.419","0.411","3","186",""
"65","R_cAcuMbA8KxJ1gcN","standard","1","65","HP","10","791.646","801.653","802.031","10.385","0.378","3","189",""
"66","R_cAcuMbA8KxJ1gcN","standard","1","66","HP","8","803.042","811.044","811.587","8.545","0.543","3","192",""
"67","R_cAcuMbA8KxJ1gcN","standard","1","67","HP","10","812.589","822.599","823.061","10.472","0.462","3","195",""
"68","R_cAcuMbA8KxJ1gcN","standard","1","68","HP","12","824.079","836.084","836.402","12.323","0.318","3","198",""
"69","R_cAcuMbA8KxJ1gcN","standard","1","69","HP","14","837.405","851.406","851.83","14.425","0.424","3","201",""
"70","R_cAcuMbA8KxJ1gcN","standard","1","70","HP","14","852.835","866.842","867.455","14.62","0.613","3","204",""
"71","R_cAcuMbA8KxJ1gcN","standard","1","71","HP","14","868.471","882.476","882.87","14.399","0.394","3","207",""
"72","R_cAcuMbA8KxJ1gcN","standard","1","72","HP","10","883.886","893.897","894.325","10.439","0.428","3","210",""
"73","R_cAcuMbA8KxJ1gcN","standard","2","1","LP","1.25738905644119","0","1.265","1.601","1.601","0.336","3","213",NA
"74","R_cAcuMbA8KxJ1gcN","standard","2","2","LP","2.15079707022835","2.603","4.761","5.065","2.462","0.304","3","216",NA
"75","R_cAcuMbA8KxJ1gcN","standard","2","3","LP","3.49090909090909","6.075","9.571","9.957","3.882","0.386","3","219",NA
"76","R_cAcuMbA8KxJ1gcN","standard","2","4","LP","8.51632916846187","10.969","19.491","19.794","8.825","0.303","3","222",NA
"77","R_cAcuMbA8KxJ1gcN","standard","2","5","LP","0.661783713916415","20.802","21.465","21.799","0.997","0.334","3","225",NA
"78","R_cAcuMbA8KxJ1gcN","standard","2","6","LP","30","22.801","NaN","26.019","3.218","NaN","0","225",NA
"79","R_cAcuMbA8KxJ1gcN","standard","2","7","LP","3.49090909090909","27.029","30.528","30.875","3.846","0.347","3","228",NA
"80","R_cAcuMbA8KxJ1gcN","standard","2","8","LP","3.49090909090909","31.886","NaN","34.97","3.084","NaN","0","228",NA
"81","R_cAcuMbA8KxJ1gcN","standard","2","9","LP","1.25738905644119","35.977","37.242","37.667","1.69","0.425","3","231",NA
"82","R_cAcuMbA8KxJ1gcN","standard","2","10","LP","0.264713485566566","38.686","38.954","39.353","0.667","0.399","3","234",NA
"83","R_cAcuMbA8KxJ1gcN","standard","2","11","LP","0.661783713916415","40.363","41.025","41.447","1.084","0.422","3","237",NA
"84","R_cAcuMbA8KxJ1gcN","standard","2","12","LP","13.0392072382594","42.45","NaN","45.073","2.623","NaN","0","237",NA
"85","R_cAcuMbA8KxJ1gcN","standard","2","13","LP","0.264713485566566","46.081","46.354","46.842","0.761","0.488","3","240",NA
"86","R_cAcuMbA8KxJ1gcN","standard","2","14","LP","2.15079707022835","47.85","50.015","50.317","2.467","0.302","3","243",NA
"87","R_cAcuMbA8KxJ1gcN","standard","2","15","LP","3.49090909090909","51.322","NaN","53.824","2.502","NaN","0","243",NA
"88","R_cAcuMbA8KxJ1gcN","standard","2","16","LP","8.51632916846187","54.834","NaN","59.483","4.649","NaN","0","243",NA
"89","R_cAcuMbA8KxJ1gcN","standard","2","17","LP","1.25738905644119","60.489","61.766","62.162","1.673","0.396","3","246",NA
"90","R_cAcuMbA8KxJ1gcN","standard","2","18","LP","19.8235243429556","63.179","NaN","67.341","4.162","NaN","0","246",NA
"91","R_cAcuMbA8KxJ1gcN","standard","2","19","LP","30","68.346","NaN","73.174","4.828","NaN","0","246",NA
"92","R_cAcuMbA8KxJ1gcN","standard","2","20","LP","5.5010771219302","74.184","NaN","78.664","4.48","NaN","0","246",NA
"93","R_cAcuMbA8KxJ1gcN","standard","2","21","LP","8.51632916846187","79.684","NaN","86.993","7.309","NaN","0","246",NA
"94","R_cAcuMbA8KxJ1gcN","standard","2","22","LP","13.0392072382594","88.008","NaN","97.118","9.11","NaN","0","246",NA
"95","R_cAcuMbA8KxJ1gcN","standard","2","23","LP","0.264713485566566","98.121","98.393","98.923","0.802","0.53","3","249",NA
"96","R_cAcuMbA8KxJ1gcN","standard","2","24","LP","5.5010771219302","99.93","105.433","105.818","5.888","0.385","3","252",NA
"97","R_cAcuMbA8KxJ1gcN","standard","2","25","LP","30","106.826","NaN","115.431","8.605","NaN","0","252",NA
"98","R_cAcuMbA8KxJ1gcN","standard","2","26","LP","2.15079707022835","116.434","118.586","119.36","2.926","0.774","3","255",NA
"99","R_cAcuMbA8KxJ1gcN","standard","2","27","LP","0.264713485566566","120.362","120.637","121.39","1.028","0.753","3","258",NA
"100","R_cAcuMbA8KxJ1gcN","standard","2","28","LP","0.661783713916415","122.394","123.063",NA,"1.672",NA,"0","258",NA
"101","R_cAcuMbA8KxJ1gcN","standard","2","29","LP","0.661783713916415","125.074","125.737","126.151","1.077","0.414","3","261",NA
"102","R_cAcuMbA8KxJ1gcN","standard","2","30","LP","1.25738905644119","127.157","128.419","128.749","1.592","0.33","3","264",NA
"103","R_cAcuMbA8KxJ1gcN","standard","2","31","LP","8.51632916846187","129.753","138.288","138.646","8.893","0.358","3","267",NA
"104","R_cAcuMbA8KxJ1gcN","standard","2","32","LP","1.25738905644119","139.655","140.927","141.375","1.72","0.448","3","270",NA
"105","R_cAcuMbA8KxJ1gcN","standard","2","33","LP","19.8235243429556","142.391","NaN","152.949","10.558","NaN","0","270",NA
"106","R_cAcuMbA8KxJ1gcN","standard","2","34","LP","2.15079707022835","153.953","156.107","156.476","2.523","0.369","3","273",NA
"107","R_cAcuMbA8KxJ1gcN","standard","2","35","LP","0.661783713916415","157.481","158.145","158.616","1.135","0.471","3","276",NA
"108","R_cAcuMbA8KxJ1gcN","standard","2","36","LP","0.264713485566566","159.628","159.898","160.245","0.617","0.347","3","279",NA
"109","R_cAcuMbA8KxJ1gcN","standard","2","37","LP","3.49090909090909","161.25","164.746","165.125","3.875","0.379","3","282",NA
"110","R_cAcuMbA8KxJ1gcN","standard","2","38","LP","8.51632916846187","166.131","174.659","175.01","8.879","0.351","3","285",NA
"111","R_cAcuMbA8KxJ1gcN","standard","2","39","LP","2.15079707022835","176.017","178.17","178.519","2.502","0.349","3","288",NA
"112","R_cAcuMbA8KxJ1gcN","standard","2","40","LP","5.5010771219302","179.529","185.038","185.377","5.848","0.339","3","291",NA
"113","R_cAcuMbA8KxJ1gcN","standard","2","41","LP","19.8235243429556","186.396","NaN","196.122","9.726","NaN","0","291",NA
"114","R_cAcuMbA8KxJ1gcN","standard","2","42","LP","8.51632916846187","197.129","205.649","206.042","8.913","0.393","3","294",NA
"115","R_cAcuMbA8KxJ1gcN","standard","2","43","LP","5.5010771219302","207.049","NaN","211.126","4.077","NaN","0","294",NA
"116","R_cAcuMbA8KxJ1gcN","standard","2","44","LP","1.25738905644119","212.131","213.394","213.694","1.563","0.3","3","297",NA
"117","R_cAcuMbA8KxJ1gcN","standard","2","45","LP","5.5010771219302","214.699","NaN","217.375","2.676","NaN","0","297",NA
"118","R_cAcuMbA8KxJ1gcN","standard","2","46","LP","0.661783713916415","218.377","219.045","219.574","1.197","0.529","3","300",NA
"119","R_cAcuMbA8KxJ1gcN","standard","2","47","LP","3.49090909090909","220.585","NaN","223.227","2.642","NaN","0","300",NA
"120","R_cAcuMbA8KxJ1gcN","standard","2","48","LP","0.264713485566566","224.234","224.505","224.896","0.662","0.391","3","303",NA
"121","R_cAcuMbA8KxJ1gcN","standard","2","49","LP","3.49090909090909","225.908","NaN","228.155","2.247","NaN","0","303",NA
"122","R_cAcuMbA8KxJ1gcN","standard","2","50","LP","8.51632916846187","229.176","NaN","231.16","1.984","NaN","0","303",NA
"123","R_cAcuMbA8KxJ1gcN","standard","2","51","LP","13.0392072382594","232.16","NaN","234.158","1.998","NaN","0","303",NA
"124","R_cAcuMbA8KxJ1gcN","standard","2","52","LP","19.8235243429556","235.162","NaN","237.723","2.561","NaN","0","303",NA
"125","R_cAcuMbA8KxJ1gcN","standard","2","53","LP","0.264713485566566","238.728","239.001","239.436","0.708","0.435","3","306",NA
"126","R_cAcuMbA8KxJ1gcN","standard","2","54","LP","0.264713485566566","240.441","240.706","241.093","0.652","0.387","3","309",NA
"127","R_cAcuMbA8KxJ1gcN","standard","2","55","LP","2.15079707022835","242.105","244.257","244.467","2.362","0.21","3","312",NA
"128","R_cAcuMbA8KxJ1gcN","standard","2","56","LP","13.0392072382594","245.474","NaN","248.141","2.667","NaN","0","312",NA
"129","R_cAcuMbA8KxJ1gcN","standard","2","57","LP","1.25738905644119","249.144","250.413","250.786","1.642","0.373","3","315",NA
"130","R_cAcuMbA8KxJ1gcN","standard","2","58","LP","3.49090909090909","251.794","NaN","254.385","2.591","NaN","0","315",NA
"131","R_cAcuMbA8KxJ1gcN","standard","2","59","LP","1.25738905644119","255.394","256.653","257.002","1.608","0.349","3","318",NA
"132","R_cAcuMbA8KxJ1gcN","standard","2","60","LP","13.0392072382594","258.02","NaN","260.022","2.002","NaN","0","318",NA
"133","R_cAcuMbA8KxJ1gcN","standard","2","61","LP","3.49090909090909","261.025","NaN","263.019","1.994","NaN","0","318",NA
"134","R_cAcuMbA8KxJ1gcN","standard","2","62","LP","1.25738905644119","264.025","265.29","265.7","1.675","0.41","3","321",NA
"135","R_cAcuMbA8KxJ1gcN","standard","2","63","LP","2.15079707022835","266.706","NaN","268.502","1.796","NaN","0","321",NA
"136","R_cAcuMbA8KxJ1gcN","standard","2","64","LP","0.661783713916415","269.517","270.199","270.599","1.082","0.4","3","324",NA
"137","R_cAcuMbA8KxJ1gcN","standard","2","65","LP","19.8235243429556","271.616","NaN","273.038","1.422","NaN","0","324",NA
"138","R_cAcuMbA8KxJ1gcN","standard","2","66","LP","0.661783713916415","274.042","274.707","275.138","1.096","0.431","3","327",NA
"139","R_cAcuMbA8KxJ1gcN","standard","2","67","LP","0.264713485566566","276.145","276.415","276.822","0.677","0.407","3","330",NA
"140","R_cAcuMbA8KxJ1gcN","standard","2","68","LP","30","277.826","NaN","279.887","2.061","NaN","0","330",NA
"141","R_cAcuMbA8KxJ1gcN","standard","2","69","LP","2.15079707022835","280.89","NaN","282.943","2.053","NaN","0","330",NA
"142","R_cAcuMbA8KxJ1gcN","standard","2","70","LP","5.5010771219302","283.945","NaN","285.61","1.665","NaN","0","330",NA
"143","R_cAcuMbA8KxJ1gcN","standard","2","71","LP","8.51632916846187","286.621","NaN","288.125","1.504","NaN","0","330",NA
"144","R_cAcuMbA8KxJ1gcN","standard","2","72","LP","13.0392072382594","289.13","NaN","290.556","1.426","NaN","0","330",NA
"145","R_cAcuMbA8KxJ1gcN","standard","2","73","LP","0.264713485566566","291.561","291.835","292.246","0.685","0.411","3","333",NA
"146","R_cAcuMbA8KxJ1gcN","standard","2","74","LP","0.661783713916415","293.254","293.931","294.317","1.063","0.386","3","336",NA
"147","R_cAcuMbA8KxJ1gcN","standard","2","75","LP","0.264713485566566","295.328","295.597","295.924","0.596","0.327","3","339",NA
"148","R_cAcuMbA8KxJ1gcN","standard","2","76","LP","1.25738905644119","296.933","298.193","298.597","1.664","0.404","3","342",NA
"149","R_cAcuMbA8KxJ1gcN","standard","2","77","LP","5.5010771219302","299.602","NaN","300.975","1.373","NaN","0","342",NA
"150","R_cAcuMbA8KxJ1gcN","standard","2","78","LP","13.0392072382594","301.977","NaN","304.311","2.334","NaN","0","342",NA
"151","R_cAcuMbA8KxJ1gcN","standard","2","79","LP","2.15079707022835","305.321","307.474","307.851","2.53","0.377","3","345",NA
"152","R_cAcuMbA8KxJ1gcN","standard","2","80","LP","1.25738905644119","308.858","310.116","310.498","1.64","0.382","3","348",NA
"153","R_cAcuMbA8KxJ1gcN","standard","2","81","LP","13.0392072382594","311.52","NaN","313.865","2.345","NaN","0","348",NA
"154","R_cAcuMbA8KxJ1gcN","standard","2","82","LP","0.264713485566566","314.886","315.169","315.589","0.703","0.42","3","351",NA
"155","R_cAcuMbA8KxJ1gcN","standard","2","83","LP","8.51632916846187","316.593","NaN","319.216","2.623","NaN","0","351",NA
"156","R_cAcuMbA8KxJ1gcN","standard","2","84","LP","3.49090909090909","320.221","NaN","322.888","2.667","NaN","0","351",NA
"157","R_cAcuMbA8KxJ1gcN","standard","2","85","LP","13.0392072382594","323.89","NaN","326.358","2.468","NaN","0","351",NA
"158","R_cAcuMbA8KxJ1gcN","standard","2","86","LP","19.8235243429556","327.362","NaN","330.264","2.902","NaN","0","351",NA
"159","R_cAcuMbA8KxJ1gcN","standard","2","87","LP","19.8235243429556","331.267","NaN","334.054","2.787","NaN","0","351",NA
"160","R_cAcuMbA8KxJ1gcN","standard","2","88","LP","2.15079707022835","335.058","337.214","337.627","2.569","0.413","3","354",NA
"161","R_cAcuMbA8KxJ1gcN","standard","2","89","LP","13.0392072382594","338.629","NaN","341.585","2.956","NaN","0","354",NA
"162","R_cAcuMbA8KxJ1gcN","standard","2","90","LP","0.661783713916415","342.594","343.261","343.652","1.058","0.391","3","357",NA
"163","R_cAcuMbA8KxJ1gcN","standard","2","91","LP","8.51632916846187","344.658","NaN","347.707","3.049","NaN","0","357",NA
"164","R_cAcuMbA8KxJ1gcN","standard","2","92","LP","13.0392072382594","348.714","NaN","351.829","3.115","NaN","0","357",NA
"165","R_cAcuMbA8KxJ1gcN","standard","2","93","LP","0.661783713916415","352.839","353.517","353.893","1.054","0.376","3","360",NA
"166","R_cAcuMbA8KxJ1gcN","standard","2","94","LP","0.661783713916415","354.9","355.57","355.91","1.01","0.34","3","363",NA
"167","R_cAcuMbA8KxJ1gcN","standard","2","95","LP","8.51632916846187","356.919","NaN","360.276","3.357","NaN","0","363",NA
"168","R_cAcuMbA8KxJ1gcN","standard","2","96","LP","19.8235243429556","361.282","NaN","364.296","3.014","NaN","0","363",NA
"169","R_cAcuMbA8KxJ1gcN","standard","2","97","LP","1.25738905644119","365.298","366.562","366.97","1.672","0.408","3","366",NA
"170","R_cAcuMbA8KxJ1gcN","standard","2","98","LP","8.51632916846187","367.987","NaN","371.055","3.068","NaN","0","366",NA
"171","R_cAcuMbA8KxJ1gcN","standard","2","99","LP","2.15079707022835","372.058","374.214","374.579","2.521","0.365","3","369",NA
"172","R_cAcuMbA8KxJ1gcN","standard","2","100","LP","2.15079707022835","375.598","377.764","378.089","2.491","0.325","3","372",NA
"173","R_cAcuMbA8KxJ1gcN","standard","2","101","LP","13.0392072382594","379.098","NaN","382.389","3.291","NaN","0","372",NA
"174","R_cAcuMbA8KxJ1gcN","standard","2","102","LP","2.15079707022835","383.393","385.545","385.852","2.459","0.307","3","375",NA
"175","R_cAcuMbA8KxJ1gcN","standard","2","103","LP","0.264713485566566","386.858","387.124","387.567","0.709","0.443","3","378",NA
"176","R_cAcuMbA8KxJ1gcN","standard","2","104","LP","5.5010771219302","388.569","NaN","391.792","3.223","NaN","0","378",NA
"177","R_cAcuMbA8KxJ1gcN","standard","2","105","LP","8.51632916846187","392.801","NaN","396.08","3.279","NaN","0","378",NA
"178","R_cAcuMbA8KxJ1gcN","standard","2","106","LP","30","397.098","NaN","400.491","3.393","NaN","0","378",NA
"179","R_cAcuMbA8KxJ1gcN","standard","2","107","LP","13.0392072382594","401.497","NaN","404.581","3.084","NaN","0","378",NA
"180","R_cAcuMbA8KxJ1gcN","standard","2","108","LP","3.49090909090909","405.585","NaN","408.937","3.352","NaN","0","378",NA
"181","R_cAcuMbA8KxJ1gcN","standard","2","109","LP","0.661783713916415","409.958","410.62","411.386","1.428","0.766","3","381",NA
"182","R_cAcuMbA8KxJ1gcN","standard","2","110","LP","5.5010771219302","412.404","NaN","415.011","2.607","NaN","0","381",NA
"183","R_cAcuMbA8KxJ1gcN","standard","2","111","LP","30","416.018","NaN","418.78","2.762","NaN","0","381",NA
"184","R_cAcuMbA8KxJ1gcN","standard","2","112","LP","8.51632916846187","419.799","NaN","422.153","2.354","NaN","0","381",NA
"185","R_cAcuMbA8KxJ1gcN","standard","2","113","LP","0.264713485566566","423.154","423.424","423.824","0.67","0.4","3","384",NA
"186","R_cAcuMbA8KxJ1gcN","standard","2","114","LP","3.49090909090909","424.827","NaN","426.038","1.211","NaN","0","384",NA
"187","R_cAcuMbA8KxJ1gcN","standard","2","115","LP","1.25738905644119","427.052","428.325","428.651","1.599","0.326","3","387",NA
"188","R_cAcuMbA8KxJ1gcN","standard","2","116","LP","2.15079707022835","429.657","NaN","430.835","1.178","NaN","0","387",NA
"189","R_cAcuMbA8KxJ1gcN","standard","2","117","LP","8.51632916846187","431.847","NaN","433.421","1.574","NaN","0","387",NA
"190","R_cAcuMbA8KxJ1gcN","standard","2","118","LP","13.0392072382594","434.43","NaN","435.505","1.075","NaN","0","387",NA
"191","R_cAcuMbA8KxJ1gcN","standard","2","119","LP","2.15079707022835","436.506","NaN","438.302","1.796","NaN","0","387",NA
"192","R_cAcuMbA8KxJ1gcN","standard","2","120","LP","0.661783713916415","439.308","439.977","440.426","1.118","0.449","3","390",NA
"193","R_cAcuMbA8KxJ1gcN","standard","2","121","LP","13.0392072382594","441.428","NaN","442.646","1.218","NaN","0","390",NA
"194","R_cAcuMbA8KxJ1gcN","standard","2","122","LP","30","443.65","NaN","444.957","1.307","NaN","0","390",NA
"195","R_cAcuMbA8KxJ1gcN","standard","2","123","LP","19.8235243429556","445.969","NaN","447.482","1.513","NaN","0","390",NA
"196","R_cAcuMbA8KxJ1gcN","standard","2","124","LP","0.264713485566566","448.49","448.762","449.178","0.688","0.416","3","393",NA
"197","R_cAcuMbA8KxJ1gcN","standard","2","125","LP","1.25738905644119","450.186","451.452","451.834","1.648","0.382","3","396",NA
"198","R_cAcuMbA8KxJ1gcN","standard","2","126","LP","5.5010771219302","452.839","NaN","454.541","1.702","NaN","0","396",NA
"199","R_cAcuMbA8KxJ1gcN","standard","2","127","LP","30","455.548","NaN","459.784","4.236","NaN","0","396",NA
"200","R_cAcuMbA8KxJ1gcN","standard","2","128","LP","3.49090909090909","460.791","NaN","463.506","2.715","NaN","0","396",NA
"201","R_cAcuMbA8KxJ1gcN","standard","2","129","LP","5.5010771219302","464.512","NaN","467.105","2.593","NaN","0","396",NA
"202","R_cAcuMbA8KxJ1gcN","standard","2","130","LP","2.15079707022835","468.106","470.259","470.7","2.594","0.441","3","399",NA
"203","R_cAcuMbA8KxJ1gcN","standard","2","131","LP","1.25738905644119","471.711","472.97","473.828","2.117","0.858","3","402",NA
"204","R_cAcuMbA8KxJ1gcN","standard","2","132","LP","0.661783713916415","474.833","475.498","475.895","1.062","0.397","3","405",NA
"205","R_cAcuMbA8KxJ1gcN","standard","2","133","LP","30","476.908","NaN","477.298","0.39","NaN","0","405",NA
"206","R_cAcuMbA8KxJ1gcN","standard","2","134","LP","1.25738905644119","478.306","479.582","479.886","1.58","0.304","3","408",NA
"207","R_cAcuMbA8KxJ1gcN","standard","2","135","LP","5.5010771219302","480.89","NaN","485.576","4.686","NaN","0","408",NA
"208","R_cAcuMbA8KxJ1gcN","standard","2","136","LP","2.15079707022835","486.578","NaN","487.075","0.497","NaN","0","408",NA
"209","R_cAcuMbA8KxJ1gcN","standard","2","137","LP","3.49090909090909","488.089","NaN","488.398","0.309","NaN","0","408",NA
"210","R_cAcuMbA8KxJ1gcN","standard","2","138","LP","5.5010771219302","489.412","NaN","489.75","0.338","NaN","0","408",NA
"211","R_cAcuMbA8KxJ1gcN","standard","2","139","LP","30","490.754","NaN","491.599","0.845","NaN","0","408",NA
"212","R_cAcuMbA8KxJ1gcN","standard","2","140","LP","2.15079707022835","492.602","NaN","493.534","0.932","NaN","0","408",NA
"213","R_cAcuMbA8KxJ1gcN","standard","2","141","LP","0.661783713916415","494.535","NaN","494.875","0.34","NaN","0","408",NA
"214","R_cAcuMbA8KxJ1gcN","standard","2","142","LP","0.264713485566566","495.882","496.154","496.556","0.674","0.402","3","411",NA
"215","R_cAcuMbA8KxJ1gcN","standard","2","143","LP","1.25738905644119","497.562","NaN","498.174","0.612","NaN","0","411",NA
"216","R_cAcuMbA8KxJ1gcN","standard","2","144","LP","13.0392072382594","499.178","NaN","499.492","0.314","NaN","0","411",NA
"217","R_cAcuMbA8KxJ1gcN","standard","2","145","LP","1.25738905644119","500.506","NaN","500.756","0.25","NaN","0","411",NA
"218","R_cAcuMbA8KxJ1gcN","standard","2","146","LP","19.8235243429556","501.762","NaN","501.997","0.235","NaN","0","411",NA
"219","R_cAcuMbA8KxJ1gcN","standard","2","147","LP","13.0392072382594","503.007","NaN","503.238","0.231","NaN","0","411",NA
"220","R_cAcuMbA8KxJ1gcN","standard","2","148","LP","0.661783713916415","504.252","NaN","504.521","0.269","NaN","0","411",NA
"221","R_cAcuMbA8KxJ1gcN","standard","2","149","LP","19.8235243429556","505.528","NaN","505.752","0.224","NaN","0","411",NA
"222","R_cAcuMbA8KxJ1gcN","standard","2","150","LP","19.8235243429556","506.754","NaN","506.981","0.227","NaN","0","411",NA
"223","R_cAcuMbA8KxJ1gcN","standard","2","151","LP","8.51632916846187","507.986","NaN","508.169","0.183","NaN","0","411",NA
"224","R_cAcuMbA8KxJ1gcN","standard","2","152","LP","5.5010771219302","509.181","NaN","509.201","0.02","NaN","0","411",NA
"225","R_cAcuMbA8KxJ1gcN","standard","2","153","LP","8.51632916846187","510.203","NaN","510.433","0.23","NaN","0","411",NA
"226","R_cAcuMbA8KxJ1gcN","standard","2","154","LP","0.264713485566566","511.442","NaN","511.705","0.263","NaN","0","411",NA
"227","R_cAcuMbA8KxJ1gcN","standard","2","155","LP","2.15079707022835","512.719","NaN","513.003","0.284","NaN","0","411",NA
"228","R_cAcuMbA8KxJ1gcN","standard","2","156","LP","8.51632916846187","514.007","NaN","518.514","4.507","NaN","0","411",NA
"229","R_cAcuMbA8KxJ1gcN","standard","2","157","LP","13.0392072382594","519.523","NaN","521.98","2.457","NaN","0","411",NA
"230","R_cAcuMbA8KxJ1gcN","standard","2","158","LP","19.8235243429556","522.988","NaN","526.056","3.068","NaN","0","411",NA
"231","R_cAcuMbA8KxJ1gcN","standard","2","159","LP","30","527.062","NaN","535.121","8.059","NaN","0","411",NA
"232","R_cAcuMbA8KxJ1gcN","standard","2","160","LP","2.15079707022835","536.131","538.29","538.674","2.543","0.384","3","414",NA
"233","R_cAcuMbA8KxJ1gcN","standard","2","161","LP","0.264713485566566","539.692","539.962","540.323","0.631","0.361","3","417",NA
"234","R_cAcuMbA8KxJ1gcN","standard","2","162","LP","2.15079707022835","541.327","543.488","543.806","2.479","0.318","3","420",NA
"235","R_cAcuMbA8KxJ1gcN","standard","2","163","LP","0.264713485566566","544.814","545.095","545.535","0.721","0.44","3","423",NA
"236","R_cAcuMbA8KxJ1gcN","standard","2","164","LP","2.15079707022835","546.539","548.699","549.009","2.47","0.31","3","426",NA
"237","R_cAcuMbA8KxJ1gcN","standard","2","165","LP","1.25738905644119","550.01","551.287","551.613","1.603","0.326","3","429",NA
"238","R_cAcuMbA8KxJ1gcN","standard","2","166","LP","8.51632916846187","552.621","NaN","556.459","3.838","NaN","0","429",NA
"239","R_cAcuMbA8KxJ1gcN","standard","2","167","LP","13.0392072382594","557.47","NaN","560.888","3.418","NaN","0","429",NA
"240","R_cAcuMbA8KxJ1gcN","standard","2","168","LP","30","561.89","NaN","565.133","3.243","NaN","0","429",NA
"241","R_cAcuMbA8KxJ1gcN","standard","2","169","LP","5.5010771219302","566.137","NaN","569.236","3.099","NaN","0","429",NA
"242","R_cAcuMbA8KxJ1gcN","standard","2","170","LP","1.25738905644119","570.242","571.517","571.931","1.689","0.414","3","432",NA
"243","R_cAcuMbA8KxJ1gcN","standard","2","171","LP","1.25738905644119","572.938","574.202","574.59","1.652","0.388","3","435",NA
"244","R_cAcuMbA8KxJ1gcN","standard","2","172","LP","1.25738905644119","575.603","576.879","577.37","1.767","0.491","3","438",NA
"245","R_cAcuMbA8KxJ1gcN","standard","2","173","LP","1.25738905644119","578.386","579.661","580.087","1.701","0.426","3","441",NA
"246","R_cAcuMbA8KxJ1gcN","standard","2","174","LP","0.661783713916415","581.09","581.753","582.094","1.004","0.341","3","444",NA
"247","R_cAcuMbA8KxJ1gcN","standard","2","175","LP","13.0392072382594","583.098","NaN","586.083","2.985","NaN","0","444",NA
"248","R_cAcuMbA8KxJ1gcN","standard","2","176","LP","2.15079707022835","587.091","589.257","589.55","2.459","0.293","3","447",NA
"249","R_cAcuMbA8KxJ1gcN","standard","2","177","LP","13.0392072382594","590.563","NaN","594.289","3.726","NaN","0","447",NA
"250","R_cAcuMbA8KxJ1gcN","standard","2","178","LP","2.15079707022835","595.297","597.449","597.804","2.507","0.355","3","450",NA
"251","R_cAcuMbA8KxJ1gcN","standard","2","179","LP","0.661783713916415","598.807","599.473","599.833","1.026","0.36","3","453",NA
