"","subject_id","condition","n_block","n_trialIdx","f_timing_condition","n_scheduled_delay","n_trial_start_time","n_rewarded_time_fin","n_sell_time_fin","n_time_waited_fin","RT_fin","n_trial_earnings_fin","n_total_earnings_fin","keypress_times"
"1","R_d50xmK9WldueCwp","standard","1","1","HP","6","0.002","6.008","6.419","6.417","0.411","3","3",""
"2","R_d50xmK9WldueCwp","standard","1","2","HP","14","7.423","21.434","21.875","14.452","0.441","3","6",""
"3","R_d50xmK9WldueCwp","standard","1","3","HP","12","22.887","34.899","35.331","12.444","0.432","3","9",""
"4","R_d50xmK9WldueCwp","standard","1","4","HP","10","36.346","46.349","46.771","10.425","0.422","3","12",""
"5","R_d50xmK9WldueCwp","standard","1","5","HP","20","47.78","67.793","68.179","20.399","0.386","3","15",""
"6","R_d50xmK9WldueCwp","standard","1","6","HP","20","69.193","89.202","89.62","20.427","0.418","3","18",""
"7","R_d50xmK9WldueCwp","standard","1","7","HP","6","90.633","96.647","97.235","6.602","0.588","3","21",""
"8","R_d50xmK9WldueCwp","standard","1","8","HP","2","98.247","100.252","100.707","2.46","0.455","3","24",""
"9","R_d50xmK9WldueCwp","standard","1","9","HP","12","101.714","113.728","114.13","12.416","0.402","3","27",""
"10","R_d50xmK9WldueCwp","standard","1","10","HP","14","115.143","129.161","129.571","14.428","0.41","3","30",""
"11","R_d50xmK9WldueCwp","standard","1","11","HP","2","130.577","132.592","133.011","2.434","0.419","3","33",""
"12","R_d50xmK9WldueCwp","standard","1","12","HP","4","134.023","138.038","138.562","4.539","0.524","3","36",""
"13","R_d50xmK9WldueCwp","standard","1","13","HP","16","139.591","155.602","156.018","16.427","0.416","3","39",""
"14","R_d50xmK9WldueCwp","standard","1","14","HP","14","157.02","171.029","171.554","14.534","0.525","3","42",""
"15","R_d50xmK9WldueCwp","standard","1","15","HP","2","172.566","174.581","175.266","2.7","0.685","3","45",""
"16","R_d50xmK9WldueCwp","standard","1","16","HP","2","176.28","178.296","178.722","2.442","0.426","3","48",""
"17","R_d50xmK9WldueCwp","standard","1","17","HP","10","179.727","189.731","190.13","10.403","0.399","3","51",""
"18","R_d50xmK9WldueCwp","standard","1","18","HP","4","191.134","195.135","195.57","4.436","0.435","3","54",""
"19","R_d50xmK9WldueCwp","standard","1","19","HP","4","196.577","200.592","201.026","4.449","0.434","3","57",""
"20","R_d50xmK9WldueCwp","standard","1","20","HP","20","202.039","222.048","222.45","20.411","0.402","3","60",""
"21","R_d50xmK9WldueCwp","standard","1","21","HP","2","223.469","225.484","225.873","2.404","0.389","3","63",""
"22","R_d50xmK9WldueCwp","standard","1","22","HP","18","226.884","244.895","245.298","18.414","0.403","3","66",""
"23","R_d50xmK9WldueCwp","standard","1","23","HP","14","246.31","260.324","260.753","14.443","0.429","3","69",""
"24","R_d50xmK9WldueCwp","standard","1","24","HP","20","261.776","281.786","282.161","20.385","0.375","3","72",""
"25","R_d50xmK9WldueCwp","standard","1","25","HP","6","283.17","289.184","289.617","6.447","0.433","3","75",""
"26","R_d50xmK9WldueCwp","standard","1","26","HP","20","290.63","310.641","311.057","20.427","0.416","3","78",""
"27","R_d50xmK9WldueCwp","standard","1","27","HP","16","312.063","328.076","328.545","16.482","0.469","3","81",""
"28","R_d50xmK9WldueCwp","standard","1","28","HP","18","329.552","347.555","347.937","18.385","0.382","3","84",""
"29","R_d50xmK9WldueCwp","standard","1","29","HP","20","348.947","368.949","369.329","20.382","0.38","3","87",""
"30","R_d50xmK9WldueCwp","standard","1","30","HP","2","370.343","372.348","372.8","2.457","0.452","3","90",""
"31","R_d50xmK9WldueCwp","standard","1","31","HP","14","373.811","387.811","388.241","14.43","0.43","3","93",""
"32","R_d50xmK9WldueCwp","standard","1","32","HP","2","389.244","391.254","391.744","2.5","0.49","3","96",""
"33","R_d50xmK9WldueCwp","standard","1","33","HP","20","392.752","412.771","413.2","20.448","0.429","3","99",""
"34","R_d50xmK9WldueCwp","standard","1","34","HP","18","414.217","432.227","432.752","18.535","0.525","3","102",""
"35","R_d50xmK9WldueCwp","standard","1","35","HP","16","433.764","449.794","450.192","16.428","0.398","3","105",""
"36","R_d50xmK9WldueCwp","standard","1","36","HP","12","451.209","463.221","463.632","12.423","0.411","3","108",""
"37","R_d50xmK9WldueCwp","standard","1","37","HP","12","464.634","476.648","477.12","12.486","0.472","3","111",""
"38","R_d50xmK9WldueCwp","standard","1","38","HP","20","478.132","498.143","498.48","20.348","0.337","3","114",""
"39","R_d50xmK9WldueCwp","standard","1","39","HP","14","499.495","513.509","513.952","14.457","0.443","3","117",""
"40","R_d50xmK9WldueCwp","standard","1","40","HP","4","514.976","518.992","519.487","4.511","0.495","3","120",""
"41","R_d50xmK9WldueCwp","standard","1","41","HP","4","520.507","524.536","524.96","4.453","0.424","3","123",""
"42","R_d50xmK9WldueCwp","standard","1","42","HP","10","525.966","535.987","536.592","10.626","0.605","3","126",""
"43","R_d50xmK9WldueCwp","standard","1","43","HP","16","537.602","553.614","554.047","16.445","0.433","3","126","7038"
"44","R_d50xmK9WldueCwp","standard","1","44","HP","14","555.051","569.055","569.536","14.485","0.481","3","129",""
"45","R_d50xmK9WldueCwp","standard","1","45","HP","18","570.536","588.553","589.023","18.487","0.47","3","132",""
"46","R_d50xmK9WldueCwp","standard","1","46","HP","18","590.036","608.047","608.511","18.475","0.464","3","135",""
"47","R_d50xmK9WldueCwp","standard","1","47","HP","12","609.516","621.527","622.126","12.61","0.599","3","138",""
"48","R_d50xmK9WldueCwp","standard","1","48","HP","2","623.134","625.142","625.694","2.56","0.552","3","141",""
"49","R_d50xmK9WldueCwp","standard","1","49","HP","16","626.711","642.737","643.247","16.536","0.51","3","144",""
"50","R_d50xmK9WldueCwp","standard","1","50","HP","4","644.255","648.275","648.718","4.463","0.443","3","147",""
"51","R_d50xmK9WldueCwp","standard","1","51","HP","4","649.722","653.723","654.224","4.502","0.501","3","150",""
"52","R_d50xmK9WldueCwp","standard","1","52","HP","2","655.236","657.251","657.646","2.41","0.395","3","153",""
"53","R_d50xmK9WldueCwp","standard","1","53","HP","10","658.657","668.67","669.342","10.685","0.672","3","156",""
"54","R_d50xmK9WldueCwp","standard","1","54","HP","4","670.369","674.385","674.894","4.525","0.509","3","159",""
"55","R_d50xmK9WldueCwp","standard","1","55","HP","18","675.917","693.927","694.398","18.481","0.471","3","162",""
"56","R_d50xmK9WldueCwp","standard","1","56","HP","4","695.41","699.412","699.87","4.46","0.458","3","165",""
"57","R_d50xmK9WldueCwp","standard","1","57","HP","6","700.878","706.892","707.294","6.416","0.402","3","168",""
"58","R_d50xmK9WldueCwp","standard","1","58","HP","10","708.306","718.321","718.798","10.492","0.477","3","171",""
"59","R_d50xmK9WldueCwp","standard","1","59","HP","8","719.82","727.821","728.43","8.61","0.609","3","174",""
"60","R_d50xmK9WldueCwp","standard","1","60","HP","8","729.448","737.449","738.078","8.63","0.629","3","177",""
"61","R_d50xmK9WldueCwp","standard","1","61","HP","8","739.1","747.113","747.71","8.61","0.597","3","180",""
"62","R_d50xmK9WldueCwp","standard","1","62","HP","10","748.713","758.715","759.23","10.517","0.515","3","183",""
"63","R_d50xmK9WldueCwp","standard","1","63","HP","10","760.244","770.245","770.83","10.586","0.585","3","186",""
"64","R_d50xmK9WldueCwp","standard","1","64","HP","18","771.838","789.85","790.318","18.48","0.468","3","189",""
"65","R_d50xmK9WldueCwp","standard","1","65","HP","14","791.319","805.332","805.822","14.503","0.49","3","192",""
"66","R_d50xmK9WldueCwp","standard","1","66","HP","6","806.831","812.838","813.229","6.398","0.391","3","195",""
"67","R_d50xmK9WldueCwp","standard","1","67","HP","14","814.243","828.247","828.701","14.458","0.454","3","198",""
"68","R_d50xmK9WldueCwp","standard","1","68","HP","4","829.725","833.725","834.301","4.576","0.576","3","201",""
"69","R_d50xmK9WldueCwp","standard","1","69","HP","20","835.31","855.319","855.757","20.447","0.438","3","204",""
"70","R_d50xmK9WldueCwp","standard","1","70","HP","4","856.771","860.786","861.453","4.682","0.667","3","207",""
"71","R_d50xmK9WldueCwp","standard","1","71","HP","20","862.454","882.481","882.877","20.423","0.396","3","210",""
"72","R_d50xmK9WldueCwp","standard","1","72","HP","2","883.88","885.895","886.444","2.564","0.549","3","213",""
"73","R_d50xmK9WldueCwp","standard","2","1","LP","0.264713485566566","0","0.267","1.221","1.221","0.954","3","216",NA
"74","R_d50xmK9WldueCwp","standard","2","2","LP","13.0392072382594","2.24","NaN","9.172","6.932","NaN","0","216",NA
"75","R_d50xmK9WldueCwp","standard","2","3","LP","19.8235243429556","10.181","NaN","15.925","5.744","NaN","0","216",NA
"76","R_d50xmK9WldueCwp","standard","2","4","LP","19.8235243429556","16.937","NaN","27.093","10.156","NaN","0","216",NA
"77","R_d50xmK9WldueCwp","standard","2","5","LP","1.25738905644119","28.106","29.376","29.813","1.707","0.437","3","219",NA
"78","R_d50xmK9WldueCwp","standard","2","6","LP","8.51632916846187","30.822","39.34","39.765","8.943","0.425","3","222",NA
"79","R_d50xmK9WldueCwp","standard","2","7","LP","0.264713485566566","40.779","41.044","41.62","0.841","0.576","3","225",NA
"80","R_d50xmK9WldueCwp","standard","2","8","LP","5.5010771219302","42.628","48.132","48.533","5.905","0.401","3","228",NA
"81","R_d50xmK9WldueCwp","standard","2","9","LP","0.264713485566566","49.546","49.82","50.309","0.763","0.489","3","231",NA
"82","R_d50xmK9WldueCwp","standard","2","10","LP","0.661783713916415","51.32","52.004","52.436","1.116","0.432","3","234",NA
"83","R_d50xmK9WldueCwp","standard","2","11","LP","5.5010771219302","53.446","58.951","59.348","5.902","0.397","3","237",NA
"84","R_d50xmK9WldueCwp","standard","2","12","LP","3.49090909090909","60.376","63.875","64.308","3.932","0.433","3","240",NA
"85","R_d50xmK9WldueCwp","standard","2","13","LP","5.5010771219302","65.31","70.815","71.22","5.91","0.405","3","243",NA
"86","R_d50xmK9WldueCwp","standard","2","14","LP","13.0392072382594","72.231","NaN","83.381","11.15","NaN","0","243",NA
"87","R_d50xmK9WldueCwp","standard","2","15","LP","1.25738905644119","84.402","85.686","86.1","1.698","0.414","3","246",NA
"88","R_d50xmK9WldueCwp","standard","2","16","LP","5.5010771219302","87.127","92.63","93.012","5.885","0.382","3","249",NA
"89","R_d50xmK9WldueCwp","standard","2","17","LP","3.49090909090909","94.029","97.528","97.956","3.927","0.428","3","252",NA
"90","R_d50xmK9WldueCwp","standard","2","18","LP","0.661783713916415","98.966","99.628","100.068","1.102","0.44","3","255",NA
"91","R_d50xmK9WldueCwp","standard","2","19","LP","5.5010771219302","101.082","106.596","106.996","5.914","0.4","3","258",NA
"92","R_d50xmK9WldueCwp","standard","2","20","LP","2.15079707022835","108.011","110.179","110.612","2.601","0.433","3","261",NA
"93","R_d50xmK9WldueCwp","standard","2","21","LP","30","111.626","NaN","122.132","10.506","NaN","0","261",NA
"94","R_d50xmK9WldueCwp","standard","2","22","LP","0.264713485566566","123.144","123.409","123.844","0.7","0.435","3","264",NA
"95","R_d50xmK9WldueCwp","standard","2","23","LP","13.0392072382594","124.859","NaN","135.796","10.937","NaN","0","264",NA
"96","R_d50xmK9WldueCwp","standard","2","24","LP","0.661783713916415","136.804","137.473","137.956","1.152","0.483","3","267",NA
"97","R_d50xmK9WldueCwp","standard","2","25","LP","30","138.957","NaN","149.924","10.967","NaN","0","267",NA
"98","R_d50xmK9WldueCwp","standard","2","26","LP","1.25738905644119","150.932","152.2","152.82","1.888","0.62","3","270",NA
"99","R_d50xmK9WldueCwp","standard","2","27","LP","8.51632916846187","153.83","162.351","162.836","9.006","0.485","3","273",NA
"100","R_d50xmK9WldueCwp","standard","2","28","LP","0.661783713916415","163.844","164.512","164.98","1.136","0.468","3","276",NA
"101","R_d50xmK9WldueCwp","standard","2","29","LP","8.51632916846187","165.997","174.525","174.932","8.935","0.407","3","279",NA
"102","R_d50xmK9WldueCwp","standard","2","30","LP","1.25738905644119","175.94","177.21","177.683","1.743","0.473","3","282",NA
"103","R_d50xmK9WldueCwp","standard","2","31","LP","1.25738905644119","178.693","179.962","180.371","1.678","0.409","3","285",NA
"104","R_d50xmK9WldueCwp","standard","2","32","LP","13.0392072382594","181.393","NaN","192.084","10.691","NaN","0","285",NA
"105","R_d50xmK9WldueCwp","standard","2","33","LP","1.25738905644119","193.106","194.391","194.867","1.761","0.476","3","288",NA
"106","R_d50xmK9WldueCwp","standard","2","34","LP","8.51632916846187","195.889","204.406","204.851","8.962","0.445","3","291",NA
"107","R_d50xmK9WldueCwp","standard","2","35","LP","0.661783713916415","205.871","206.533",NA,"1.663",NA,"0","291",NA
"108","R_d50xmK9WldueCwp","standard","2","36","LP","0.264713485566566","208.549","208.818","209.507","0.958","0.689","3","294",NA
"109","R_d50xmK9WldueCwp","standard","2","37","LP","2.15079707022835","210.517","212.685","213.123","2.606","0.438","3","297",NA
"110","R_d50xmK9WldueCwp","standard","2","38","LP","13.0392072382594","214.132","NaN","226.403","12.271","NaN","0","297",NA
"111","R_d50xmK9WldueCwp","standard","2","39","LP","30","227.413","NaN","237.651","10.238","NaN","0","297",NA
"112","R_d50xmK9WldueCwp","standard","2","40","LP","1.25738905644119","238.663","239.924","240.371","1.708","0.447","3","300",NA
"113","R_d50xmK9WldueCwp","standard","2","41","LP","19.8235243429556","241.378","NaN","252.387","11.009","NaN","0","300",NA
"114","R_d50xmK9WldueCwp","standard","2","42","LP","2.15079707022835","253.407","255.577","256.019","2.612","0.442","3","303",NA
"115","R_d50xmK9WldueCwp","standard","2","43","LP","19.8235243429556","257.023","NaN","270.051","13.028","NaN","0","303",NA
"116","R_d50xmK9WldueCwp","standard","2","44","LP","0.264713485566566","271.056","271.32","272.082","1.026","0.762","3","306",NA
"117","R_d50xmK9WldueCwp","standard","2","45","LP","13.0392072382594","273.087","NaN","283.795","10.708","NaN","0","306",NA
"118","R_d50xmK9WldueCwp","standard","2","46","LP","1.25738905644119","284.815","286.084","286.483","1.668","0.399","3","309",NA
"119","R_d50xmK9WldueCwp","standard","2","47","LP","5.5010771219302","287.498","293.012","293.491","5.993","0.479","3","312",NA
"120","R_d50xmK9WldueCwp","standard","2","48","LP","0.264713485566566","294.496","294.764","295.219","0.723","0.455","3","315",NA
"121","R_d50xmK9WldueCwp","standard","2","49","LP","13.0392072382594","296.227","NaN","306.323","10.096","NaN","0","315",NA
"122","R_d50xmK9WldueCwp","standard","2","50","LP","2.15079707022835","307.324","309.476","309.842","2.518","0.366","3","318",NA
"123","R_d50xmK9WldueCwp","standard","2","51","LP","2.15079707022835","310.844","313.008","313.411","2.567","0.403","3","321",NA
"124","R_d50xmK9WldueCwp","standard","2","52","LP","2.15079707022835","314.411","316.564","316.995","2.584","0.431","3","324",NA
"125","R_d50xmK9WldueCwp","standard","2","53","LP","3.49090909090909","318.008","321.506","322.002","3.994","0.496","3","327",NA
"126","R_d50xmK9WldueCwp","standard","2","54","LP","0.661783713916415","323.007","323.69","324.098","1.091","0.408","3","330",NA
"127","R_d50xmK9WldueCwp","standard","2","55","LP","1.25738905644119","325.104","326.364","326.802","1.698","0.438","3","333",NA
"128","R_d50xmK9WldueCwp","standard","2","56","LP","0.661783713916415","327.805","328.473","328.915","1.11","0.442","3","336",NA
"129","R_d50xmK9WldueCwp","standard","2","57","LP","13.0392072382594","329.932","NaN","340.931","10.999","NaN","0","336",NA
"130","R_d50xmK9WldueCwp","standard","2","58","LP","5.5010771219302","341.933","347.447","347.938","6.005","0.491","3","339",NA
"131","R_d50xmK9WldueCwp","standard","2","59","LP","1.25738905644119","348.946","350.215","350.69","1.744","0.475","3","342",NA
"132","R_d50xmK9WldueCwp","standard","2","60","LP","8.51632916846187","351.698","360.227","360.755","9.057","0.528","3","345",NA
"133","R_d50xmK9WldueCwp","standard","2","61","LP","30","361.765","NaN","371.65","9.885","NaN","0","345",NA
"134","R_d50xmK9WldueCwp","standard","2","62","LP","30","372.661","NaN","383.474","10.813","NaN","0","345",NA
"135","R_d50xmK9WldueCwp","standard","2","63","LP","1.25738905644119","384.491","385.759","386.274","1.783","0.515","3","348",NA
"136","R_d50xmK9WldueCwp","standard","2","64","LP","5.5010771219302","387.289","392.803","393.186","5.897","0.383","3","351",NA
"137","R_d50xmK9WldueCwp","standard","2","65","LP","19.8235243429556","394.188","NaN","406.194","12.006","NaN","0","351",NA
"138","R_d50xmK9WldueCwp","standard","2","66","LP","1.25738905644119","407.2","408.469","409.026","1.826","0.557","3","354",NA
"139","R_d50xmK9WldueCwp","standard","2","67","LP","1.25738905644119","410.03","411.299","411.73","1.7","0.431","3","357",NA
"140","R_d50xmK9WldueCwp","standard","2","68","LP","2.15079707022835","412.735","414.898","415.346","2.611","0.448","3","360",NA
"141","R_d50xmK9WldueCwp","standard","2","69","LP","1.25738905644119","416.351","417.613","418.13","1.779","0.517","3","363",NA
"142","R_d50xmK9WldueCwp","standard","2","70","LP","1.25738905644119","419.145","420.413","420.881","1.736","0.468","3","366",NA
"143","R_d50xmK9WldueCwp","standard","2","71","LP","30","421.889","NaN","429.554","7.665","NaN","0","366",NA
"144","R_d50xmK9WldueCwp","standard","2","72","LP","2.15079707022835","430.561","432.711","433.33","2.769","0.619","3","369",NA
"145","R_d50xmK9WldueCwp","standard","2","73","LP","19.8235243429556","434.339","NaN","441.106","6.767","NaN","0","369",NA
"146","R_d50xmK9WldueCwp","standard","2","74","LP","1.25738905644119","442.134","443.409","443.842","1.708","0.433","3","372",NA
"147","R_d50xmK9WldueCwp","standard","2","75","LP","3.49090909090909","444.844","448.335","448.721","3.877","0.386","3","375",NA
"148","R_d50xmK9WldueCwp","standard","2","76","LP","8.51632916846187","449.725","NaN","457.633","7.908","NaN","0","375",NA
"149","R_d50xmK9WldueCwp","standard","2","77","LP","0.661783713916415","458.64","459.333","459.809","1.169","0.476","3","378",NA
"150","R_d50xmK9WldueCwp","standard","2","78","LP","13.0392072382594","460.819","NaN","468.05","7.231","NaN","0","378",NA
"151","R_d50xmK9WldueCwp","standard","2","79","LP","1.25738905644119","469.054","470.316","470.769","1.715","0.453","3","381",NA
"152","R_d50xmK9WldueCwp","standard","2","80","LP","13.0392072382594","471.784","NaN","478.081","6.297","NaN","0","381",NA
"153","R_d50xmK9WldueCwp","standard","2","81","LP","3.49090909090909","479.099","482.597","483.057","3.958","0.46","3","384",NA
"154","R_d50xmK9WldueCwp","standard","2","82","LP","1.25738905644119","484.066","485.328","485.841","1.775","0.513","3","387",NA
"155","R_d50xmK9WldueCwp","standard","2","83","LP","19.8235243429556","486.844","NaN","492.369","5.525","NaN","0","387",NA
"156","R_d50xmK9WldueCwp","standard","2","84","LP","0.264713485566566","493.38","493.647","494.289","0.909","0.642","3","390",NA
"157","R_d50xmK9WldueCwp","standard","2","85","LP","0.264713485566566","495.294","495.578","496.001","0.707","0.423","3","393",NA
"158","R_d50xmK9WldueCwp","standard","2","86","LP","8.51632916846187","497.01","NaN","502.768","5.758","NaN","0","393",NA
"159","R_d50xmK9WldueCwp","standard","2","87","LP","5.5010771219302","503.776","509.291","509.729","5.953","0.438","3","396",NA
"160","R_d50xmK9WldueCwp","standard","2","88","LP","2.15079707022835","510.733","512.905","513.425","2.692","0.52","3","399",NA
"161","R_d50xmK9WldueCwp","standard","2","89","LP","30","514.438","NaN","522.256","7.818","NaN","0","399",NA
"162","R_d50xmK9WldueCwp","standard","2","90","LP","8.51632916846187","523.272","531.801","532.257","8.985","0.456","3","402",NA
"163","R_d50xmK9WldueCwp","standard","2","91","LP","5.5010771219302","533.269","538.784","539.216","5.947","0.432","3","405",NA
"164","R_d50xmK9WldueCwp","standard","2","92","LP","8.51632916846187","540.217","NaN","546.48","6.263","NaN","0","405",NA
"165","R_d50xmK9WldueCwp","standard","2","93","LP","0.661783713916415","547.497","548.165","548.576","1.079","0.411","3","408",NA
"166","R_d50xmK9WldueCwp","standard","2","94","LP","3.49090909090909","549.58","553.079","553.504","3.924","0.425","3","411",NA
"167","R_d50xmK9WldueCwp","standard","2","95","LP","3.49090909090909","554.511","558.009","558.448","3.937","0.439","3","414",NA
"168","R_d50xmK9WldueCwp","standard","2","96","LP","2.15079707022835","559.462","561.625","562.081","2.619","0.456","3","417",NA
"169","R_d50xmK9WldueCwp","standard","2","97","LP","3.49090909090909","563.094","566.594","567.041","3.947","0.447","3","420",NA
"170","R_d50xmK9WldueCwp","standard","2","98","LP","0.264713485566566","568.045","568.333","569.041","0.996","0.708","3","423",NA
"171","R_d50xmK9WldueCwp","standard","2","99","LP","5.5010771219302","570.044","575.559","575.968","5.924","0.409","3","426",NA
"172","R_d50xmK9WldueCwp","standard","2","100","LP","8.51632916846187","576.976","NaN","582.192","5.216","NaN","0","426",NA
"173","R_d50xmK9WldueCwp","standard","2","101","LP","5.5010771219302","583.206","588.734","589.121","5.915","0.387","3","429",NA
"174","R_d50xmK9WldueCwp","standard","2","102","LP","8.51632916846187","590.133","NaN","594.657","4.524","NaN","0","429",NA
