"","subject_id","condition","n_block","n_trialIdx","f_timing_condition","n_scheduled_delay","n_trial_start_time","n_rewarded_time_fin","n_sell_time_fin","n_time_waited_fin","RT_fin","n_trial_earnings_fin","n_total_earnings_fin","keypress_times"
"1","R_Dk4PjNEEaiPRli9","standard","1","1","LP","30","0.002","30.022","30.579","30.577","0.557","3","3",""
"2","R_Dk4PjNEEaiPRli9","standard","1","2","LP","0.264713485566566","31.587","31.867","32.603","1.016","0.736","3","6",""
"3","R_Dk4PjNEEaiPRli9","standard","1","3","LP","0.661783713916415","33.618","34.3","34.922","1.304","0.622","3","9",""
"4","R_Dk4PjNEEaiPRli9","standard","1","4","LP","8.51632916846187","35.933","44.462","45.107","9.174","0.645","3","12",""
"5","R_Dk4PjNEEaiPRli9","standard","1","5","LP","0.661783713916415","46.114","46.783","47.37","1.256","0.587","3","15",""
"6","R_Dk4PjNEEaiPRli9","standard","1","6","LP","0.661783713916415","48.379","49.045","49.586","1.207","0.541","3","18",""
"7","R_Dk4PjNEEaiPRli9","standard","1","7","LP","3.49090909090909","50.595","54.093","54.611","4.016","0.518","3","21",""
"8","R_Dk4PjNEEaiPRli9","standard","1","8","LP","30","55.626","85.634","86.139","30.513","0.505","3","24",""
"9","R_Dk4PjNEEaiPRli9","standard","1","9","LP","0.264713485566566","87.147","87.418","87.994","0.847","0.576","3","27",""
"10","R_Dk4PjNEEaiPRli9","standard","1","10","LP","0.264713485566566","89.015","89.298","89.786","0.771","0.488","3","30",""
"11","R_Dk4PjNEEaiPRli9","standard","1","11","LP","19.8235243429556","90.798","110.626","111.147","20.349","0.521","3","33",""
"12","R_Dk4PjNEEaiPRli9","standard","1","12","LP","8.51632916846187","112.155","120.687","121.235","9.08","0.548","3","36",""
"13","R_Dk4PjNEEaiPRli9","standard","1","13","LP","0.661783713916415","122.238","122.903","123.434","1.196","0.531","3","39",""
"14","R_Dk4PjNEEaiPRli9","standard","1","14","LP","2.15079707022835","124.451","126.621","127.122","2.671","0.501","3","42",""
"15","R_Dk4PjNEEaiPRli9","standard","1","15","LP","19.8235243429556","128.128","147.96","148.467","20.339","0.507","3","45",""
"16","R_Dk4PjNEEaiPRli9","standard","1","16","LP","30","149.478","179.487","179.947","30.469","0.46","3","48",""
"17","R_Dk4PjNEEaiPRli9","standard","1","17","LP","0.661783713916415","180.95","181.617","182.114","1.164","0.497","3","51",""
"18","R_Dk4PjNEEaiPRli9","standard","1","18","LP","19.8235243429556","183.117","202.942","203.475","20.358","0.533","3","54",""
"19","R_Dk4PjNEEaiPRli9","standard","1","19","LP","5.5010771219302","204.493","210.007","210.546","6.053","0.539","3","57",""
"20","R_Dk4PjNEEaiPRli9","standard","1","20","LP","30","211.565","241.58","242.082","30.517","0.502","3","60",""
"21","R_Dk4PjNEEaiPRli9","standard","1","21","LP","3.49090909090909","243.096","246.595","247.146","4.05","0.551","3","63",""
"22","R_Dk4PjNEEaiPRli9","standard","1","22","LP","0.264713485566566","248.153","248.428","249.01","0.857","0.582","3","66",""
"23","R_Dk4PjNEEaiPRli9","standard","1","23","LP","30","250.012","280.018","280.483","30.471","0.465","3","69",""
"24","R_Dk4PjNEEaiPRli9","standard","1","24","LP","1.25738905644119","281.501","282.76","283.362","1.861","0.602","3","72",""
"25","R_Dk4PjNEEaiPRli9","standard","1","25","LP","13.0392072382594","284.382","297.426","297.922","13.54","0.496","3","75",""
"26","R_Dk4PjNEEaiPRli9","standard","1","26","LP","3.49090909090909","298.926","302.426","302.954","4.028","0.528","3","78",""
"27","R_Dk4PjNEEaiPRli9","standard","1","27","LP","13.0392072382594","303.976","317.021","317.562","13.586","0.541","3","81",""
"28","R_Dk4PjNEEaiPRli9","standard","1","28","LP","2.15079707022835","318.57","320.736","321.322","2.752","0.586","3","84",""
"29","R_Dk4PjNEEaiPRli9","standard","1","29","LP","30","322.336","352.342","352.882","30.546","0.54","3","87",""
"30","R_Dk4PjNEEaiPRli9","standard","1","30","LP","19.8235243429556","353.892","373.732","374.25","20.358","0.518","3","90",""
"31","R_Dk4PjNEEaiPRli9","standard","1","31","LP","1.25738905644119","375.255","376.518","377.098","1.843","0.58","3","93",""
"32","R_Dk4PjNEEaiPRli9","standard","1","32","LP","5.5010771219302","378.117","383.631","384.162","6.045","0.531","3","96",""
"33","R_Dk4PjNEEaiPRli9","standard","1","33","LP","19.8235243429556","385.181","405.008","405.546","20.365","0.538","3","99",""
"34","R_Dk4PjNEEaiPRli9","standard","1","34","LP","3.49090909090909","406.554","410.048","410.617","4.063","0.569","3","102",""
"35","R_Dk4PjNEEaiPRli9","standard","1","35","LP","0.661783713916415","411.621","412.287","412.89","1.269","0.603","3","105",""
"36","R_Dk4PjNEEaiPRli9","standard","1","36","LP","13.0392072382594","413.902","426.949","427.474","13.572","0.525","3","108",""
"37","R_Dk4PjNEEaiPRli9","standard","1","37","LP","3.49090909090909","428.483","431.979","432.545","4.062","0.566","3","111",""
"38","R_Dk4PjNEEaiPRli9","standard","1","38","LP","2.15079707022835","433.548","435.714","436.37","2.822","0.656","3","114",""
"39","R_Dk4PjNEEaiPRli9","standard","1","39","LP","0.661783713916415","437.38","438.046","438.658","1.278","0.612","3","117",""
"40","R_Dk4PjNEEaiPRli9","standard","1","40","LP","2.15079707022835","439.679","441.831","442.497","2.818","0.666","3","120",""
"41","R_Dk4PjNEEaiPRli9","standard","1","41","LP","30","443.512","473.52","474.01","30.498","0.49","3","123",""
"42","R_Dk4PjNEEaiPRli9","standard","1","42","LP","13.0392072382594","475.021","488.079","488.626","13.605","0.547","3","126",""
"43","R_Dk4PjNEEaiPRli9","standard","1","43","LP","0.661783713916415","489.627","490.296","490.89","1.263","0.594","3","129",""
"44","R_Dk4PjNEEaiPRli9","standard","1","44","LP","3.49090909090909","491.912","495.411","495.922","4.01","0.511","3","132",""
"45","R_Dk4PjNEEaiPRli9","standard","1","45","LP","3.49090909090909","496.929","500.425","501.018","4.089","0.593","3","135",""
"46","R_Dk4PjNEEaiPRli9","standard","1","46","LP","5.5010771219302","502.025","507.538","508.081","6.056","0.543","3","138",""
"47","R_Dk4PjNEEaiPRli9","standard","1","47","LP","0.264713485566566","509.089","509.37","510.05","0.961","0.68","3","141",""
"48","R_Dk4PjNEEaiPRli9","standard","1","48","LP","13.0392072382594","511.07","524.119","524.674","13.604","0.555","3","144",""
"49","R_Dk4PjNEEaiPRli9","standard","1","49","LP","30","525.684","555.69","556.218","30.534","0.528","3","147",""
"50","R_Dk4PjNEEaiPRli9","standard","1","50","LP","5.5010771219302","557.224","562.737","563.313","6.089","0.576","3","150",""
"51","R_Dk4PjNEEaiPRli9","standard","1","51","LP","0.264713485566566","564.321","564.603","565.25","0.929","0.647","3","153",""
"52","R_Dk4PjNEEaiPRli9","standard","1","52","LP","30","566.252","596.255","596.778","30.526","0.523","3","156",""
"53","R_Dk4PjNEEaiPRli9","standard","1","53","LP","30","597.793","627.816","628.338","30.545","0.522","3","159",""
"54","R_Dk4PjNEEaiPRli9","standard","1","54","LP","19.8235243429556","629.352","649.192","649.746","20.394","0.554","3","162",""
"55","R_Dk4PjNEEaiPRli9","standard","1","55","LP","0.661783713916415","650.752","651.425","652.049","1.297","0.624","3","165",""
"56","R_Dk4PjNEEaiPRli9","standard","1","56","LP","30","653.056","683.063","683.618","30.562","0.555","3","168",""
"57","R_Dk4PjNEEaiPRli9","standard","1","57","LP","13.0392072382594","684.629","697.675","698.25","13.621","0.575","3","171",""
"58","R_Dk4PjNEEaiPRli9","standard","1","58","LP","5.5010771219302","699.256","704.77","705.338","6.082","0.568","3","174",""
"59","R_Dk4PjNEEaiPRli9","standard","1","59","LP","2.15079707022835","706.338","708.504","709.122","2.784","0.618","3","177",""
"60","R_Dk4PjNEEaiPRli9","standard","1","60","LP","19.8235243429556","710.137","729.981","730.546","20.409","0.565","3","180",""
"61","R_Dk4PjNEEaiPRli9","standard","1","61","LP","2.15079707022835","731.546","733.713","734.298","2.752","0.585","3","183",""
"62","R_Dk4PjNEEaiPRli9","standard","1","62","LP","5.5010771219302","735.313","740.826","741.386","6.073","0.56","3","186",""
"63","R_Dk4PjNEEaiPRli9","standard","1","63","LP","0.661783713916415","742.393","743.057","743.706","1.313","0.649","3","189",""
"64","R_Dk4PjNEEaiPRli9","standard","1","64","LP","1.25738905644119","744.71","745.975","746.561","1.851","0.586","3","192",""
"65","R_Dk4PjNEEaiPRli9","standard","1","65","LP","19.8235243429556","747.575","767.403","767.978","20.403","0.575","3","195",""
"66","R_Dk4PjNEEaiPRli9","standard","1","66","LP","5.5010771219302","768.987","774.499","775.074","6.087","0.575","3","198",""
"67","R_Dk4PjNEEaiPRli9","standard","1","67","LP","8.51632916846187","776.082","784.612","785.186","9.104","0.574","3","201",""
"68","R_Dk4PjNEEaiPRli9","standard","1","68","LP","19.8235243429556","786.195","806.019","806.601","20.406","0.582","3","204",""
"69","R_Dk4PjNEEaiPRli9","standard","1","69","LP","3.49090909090909","807.621","811.119","812.009","4.388","0.89","3","207",""
"70","R_Dk4PjNEEaiPRli9","standard","1","70","LP","8.51632916846187","813.021","821.548","822.114","9.093","0.566","3","210",""
"71","R_Dk4PjNEEaiPRli9","standard","1","71","LP","0.661783713916415","823.116","823.799","824.545","1.429","0.746","3","213",""
"72","R_Dk4PjNEEaiPRli9","standard","1","72","LP","30","825.548","855.552","856.114","30.566","0.562","3","216",""
"73","R_Dk4PjNEEaiPRli9","standard","1","73","LP","2.15079707022835","857.122","859.287","859.881","2.759","0.594","3","219",""
"74","R_Dk4PjNEEaiPRli9","standard","1","74","LP","5.5010771219302","860.904","866.42","866.954","6.05","0.534","3","222",""
"75","R_Dk4PjNEEaiPRli9","standard","1","75","LP","13.0392072382594","867.967","881.013","881.561","13.594","0.548","3","225",""
"76","R_Dk4PjNEEaiPRli9","standard","1","76","LP","0.264713485566566","882.562","882.844","883.593","1.031","0.749","3","228",""
"77","R_Dk4PjNEEaiPRli9","standard","1","77","LP","8.51632916846187","884.61","893.14","893.738","9.128","0.598","3","231",""
"78","R_Dk4PjNEEaiPRli9","standard","1","78","LP","0.661783713916415","894.741","895.408","896.001","1.26","0.593","3","234",""
"79","R_Dk4PjNEEaiPRli9","standard","1","79","LP","0.264713485566566","897.01","897.29","897.849","0.839","0.559","3","237",""
"80","R_Dk4PjNEEaiPRli9","standard","2","1","LP","8.51632916846187","0.001","8.527","9.026","9.025","0.499","3","240",NA
"81","R_Dk4PjNEEaiPRli9","standard","2","2","LP","13.0392072382594","10.04","23.089","23.586","13.546","0.497","3","243",NA
"82","R_Dk4PjNEEaiPRli9","standard","2","3","LP","30","24.6","54.609","55.193","30.593","0.584","3","246",NA
"83","R_Dk4PjNEEaiPRli9","standard","2","4","LP","30","56.208","86.215","86.682","30.474","0.467","3","249",NA
"84","R_Dk4PjNEEaiPRli9","standard","2","5","LP","1.25738905644119","87.7","88.959","89.577","1.877","0.618","3","252",NA
"85","R_Dk4PjNEEaiPRli9","standard","2","6","LP","5.5010771219302","90.597","96.104","96.681","6.084","0.577","3","255",NA
"86","R_Dk4PjNEEaiPRli9","standard","2","7","LP","19.8235243429556","97.695","117.522","118.001","20.306","0.479","3","258",NA
"87","R_Dk4PjNEEaiPRli9","standard","2","8","LP","5.5010771219302","119.023","124.541","125.081","6.058","0.54","3","261",NA
"88","R_Dk4PjNEEaiPRli9","standard","2","9","LP","0.661783713916415","126.101","126.767","127.505","1.404","0.738","3","264",NA
"89","R_Dk4PjNEEaiPRli9","standard","2","10","LP","0.264713485566566","128.518","128.784","129.377","0.859","0.593","3","267",NA
"90","R_Dk4PjNEEaiPRli9","standard","2","11","LP","2.15079707022835","130.384","132.548","133.097","2.713","0.549","3","270",NA
"91","R_Dk4PjNEEaiPRli9","standard","2","12","LP","2.15079707022835","134.117","136.281","136.849","2.732","0.568","3","273",NA
"92","R_Dk4PjNEEaiPRli9","standard","2","13","LP","0.661783713916415","137.855","138.53","139.089","1.234","0.559","3","276",NA
"93","R_Dk4PjNEEaiPRli9","standard","2","14","LP","19.8235243429556","140.097","159.939","160.433","20.336","0.494","3","279",NA
"94","R_Dk4PjNEEaiPRli9","standard","2","15","LP","0.661783713916415","161.44","162.107","162.681","1.241","0.574","3","282",NA
"95","R_Dk4PjNEEaiPRli9","standard","2","16","LP","1.25738905644119","163.689","164.951","165.448","1.759","0.497","3","285",NA
"96","R_Dk4PjNEEaiPRli9","standard","2","17","LP","1.25738905644119","166.454","167.722","168.216","1.762","0.494","3","288",NA
"97","R_Dk4PjNEEaiPRli9","standard","2","18","LP","2.15079707022835","169.218","171.384","171.929","2.711","0.545","3","291",NA
"98","R_Dk4PjNEEaiPRli9","standard","2","19","LP","3.49090909090909","172.951","176.45","176.921","3.97","0.471","3","294",NA
"99","R_Dk4PjNEEaiPRli9","standard","2","20","LP","2.15079707022835","177.934","180.101","180.577","2.643","0.476","3","297",NA
"100","R_Dk4PjNEEaiPRli9","standard","2","21","LP","3.49090909090909","181.584","185.082","185.569","3.985","0.487","3","300",NA
"101","R_Dk4PjNEEaiPRli9","standard","2","22","LP","5.5010771219302","186.581","192.096","192.609","6.028","0.513","3","303",NA
"102","R_Dk4PjNEEaiPRli9","standard","2","23","LP","3.49090909090909","193.615","197.111","197.641","4.026","0.53","3","306",NA
"103","R_Dk4PjNEEaiPRli9","standard","2","24","LP","0.661783713916415","198.643","199.31","199.872","1.229","0.562","3","309",NA
"104","R_Dk4PjNEEaiPRli9","standard","2","25","LP","3.49090909090909","200.893","204.392","204.913","4.02","0.521","3","312",NA
"105","R_Dk4PjNEEaiPRli9","standard","2","26","LP","2.15079707022835","205.925","208.09","208.626","2.701","0.536","3","315",NA
"106","R_Dk4PjNEEaiPRli9","standard","2","27","LP","5.5010771219302","209.638","215.143","215.633","5.995","0.49","3","318",NA
"107","R_Dk4PjNEEaiPRli9","standard","2","28","LP","13.0392072382594","216.653","229.7","230.25","13.597","0.55","3","321",NA
"108","R_Dk4PjNEEaiPRli9","standard","2","29","LP","0.264713485566566","231.256","231.533","232.104","0.848","0.571","3","324",NA
"109","R_Dk4PjNEEaiPRli9","standard","2","30","LP","3.49090909090909","233.116","236.615","237.105","3.989","0.49","3","327",NA
"110","R_Dk4PjNEEaiPRli9","standard","2","31","LP","1.25738905644119","238.114","239.38","239.945","1.831","0.565","3","330",NA
"111","R_Dk4PjNEEaiPRli9","standard","2","32","LP","1.25738905644119","240.946","242.212","242.769","1.823","0.557","3","333",NA
"112","R_Dk4PjNEEaiPRli9","standard","2","33","LP","5.5010771219302","243.778","249.293","249.777","5.999","0.484","3","336",NA
"113","R_Dk4PjNEEaiPRli9","standard","2","34","LP","19.8235243429556","250.792","270.618","271.187","20.395","0.569","3","339",NA
"114","R_Dk4PjNEEaiPRli9","standard","2","35","LP","5.5010771219302","272.201","277.718","278.273","6.072","0.555","3","342",NA
"115","R_Dk4PjNEEaiPRli9","standard","2","36","LP","0.661783713916415","279.279","279.948","280.713","1.434","0.765","3","345",NA
"116","R_Dk4PjNEEaiPRli9","standard","2","37","LP","5.5010771219302","281.718","287.23","287.777","6.059","0.547","3","348",NA
"117","R_Dk4PjNEEaiPRli9","standard","2","38","LP","3.49090909090909","288.796","292.295","292.801","4.005","0.506","3","351",NA
"118","R_Dk4PjNEEaiPRli9","standard","2","39","LP","30","293.812","323.818","324.426","30.614","0.608","3","354",NA
"119","R_Dk4PjNEEaiPRli9","standard","2","40","LP","8.51632916846187","325.434","333.952","334.513","9.079","0.561","3","357",NA
"120","R_Dk4PjNEEaiPRli9","standard","2","41","LP","1.25738905644119","335.514","336.78","337.433","1.919","0.653","3","360",NA
"121","R_Dk4PjNEEaiPRli9","standard","2","42","LP","2.15079707022835","338.446","340.612","341.16","2.714","0.548","3","363",NA
"122","R_Dk4PjNEEaiPRli9","standard","2","43","LP","3.49090909090909","342.178","345.677","346.217","4.039","0.54","3","366",NA
"123","R_Dk4PjNEEaiPRli9","standard","2","44","LP","3.49090909090909","347.227","350.728","351.248","4.021","0.52","3","369",NA
"124","R_Dk4PjNEEaiPRli9","standard","2","45","LP","3.49090909090909","352.256","355.757","356.289","4.033","0.532","3","372",NA
"125","R_Dk4PjNEEaiPRli9","standard","2","46","LP","1.25738905644119","357.307","358.573","359.113","1.806","0.54","3","375",NA
"126","R_Dk4PjNEEaiPRli9","standard","2","47","LP","0.661783713916415","360.125","360.788","361.36","1.235","0.572","3","378",NA
"127","R_Dk4PjNEEaiPRli9","standard","2","48","LP","1.25738905644119","362.371","363.637","364.281","1.91","0.644","3","381",NA
"128","R_Dk4PjNEEaiPRli9","standard","2","49","LP","30","365.303","395.311","395.865","30.562","0.554","3","384",NA
"129","R_Dk4PjNEEaiPRli9","standard","2","50","LP","30","396.878","426.884","427.393","30.515","0.509","3","387",NA
"130","R_Dk4PjNEEaiPRli9","standard","2","51","LP","0.264713485566566","428.401","428.672","429.224","0.823","0.552","3","390",NA
"131","R_Dk4PjNEEaiPRli9","standard","2","52","LP","13.0392072382594","430.231","443.272","443.778","13.547","0.506","3","393",NA
"132","R_Dk4PjNEEaiPRli9","standard","2","53","LP","1.25738905644119","444.783","446.042","446.6","1.817","0.558","3","396",NA
"133","R_Dk4PjNEEaiPRli9","standard","2","54","LP","8.51632916846187","447.621","456.152","456.681","9.06","0.529","3","399",NA
"134","R_Dk4PjNEEaiPRli9","standard","2","55","LP","8.51632916846187","457.688","466.212","466.792","9.104","0.58","3","402",NA
"135","R_Dk4PjNEEaiPRli9","standard","2","56","LP","30","467.8","497.809","498.336","30.536","0.527","3","405",NA
"136","R_Dk4PjNEEaiPRli9","standard","2","57","LP","1.25738905644119","499.341","500.608","501.241","1.9","0.633","3","408",NA
"137","R_Dk4PjNEEaiPRli9","standard","2","58","LP","0.264713485566566","502.249","502.524","503.208","0.959","0.684","3","411",NA
"138","R_Dk4PjNEEaiPRli9","standard","2","59","LP","8.51632916846187","504.225","512.747","513.313","9.088","0.566","3","414",NA
"139","R_Dk4PjNEEaiPRli9","standard","2","60","LP","30","514.322","544.326","544.849","30.527","0.523","3","417",NA
"140","R_Dk4PjNEEaiPRli9","standard","2","61","LP","13.0392072382594","545.857","558.904","559.449","13.592","0.545","3","420",NA
"141","R_Dk4PjNEEaiPRli9","standard","2","62","LP","1.25738905644119","560.453","561.721","562.353","1.9","0.632","3","423",NA
"142","R_Dk4PjNEEaiPRli9","standard","2","63","LP","0.661783713916415","563.37","564.051","564.665","1.295","0.614","3","426",NA
"143","R_Dk4PjNEEaiPRli9","standard","2","64","LP","30","565.684","595.693","596.233","30.549","0.54","3","429",NA
