"","subject_id","condition","n_block","n_trialIdx","f_timing_condition","n_scheduled_delay","n_trial_start_time","n_rewarded_time_fin","n_sell_time_fin","n_time_waited_fin","RT_fin","n_trial_earnings_fin","n_total_earnings_fin","keypress_times"
"1","R_ereJXWv1XOJYcql","standard","1","1","LP","0.661783713916415","0.001","0.68","NA","1.699","NA","0","0",""
"2","R_ereJXWv1XOJYcql","standard","1","2","LP","8.51632916846187","2.704","11.231","11.789","9.085","0.558","3","3",""
"3","R_ereJXWv1XOJYcql","standard","1","3","LP","3.49090909090909","12.798","16.298","16.716","3.918","0.418","3","6",""
"4","R_ereJXWv1XOJYcql","standard","1","4","LP","2.15079707022835","17.719","19.88","20.357","2.638","0.477","3","9",""
"5","R_ereJXWv1XOJYcql","standard","1","5","LP","2.15079707022835","21.365","23.516","23.964","2.599","0.448","3","12",""
"6","R_ereJXWv1XOJYcql","standard","1","6","LP","30","24.967","54.986","55.318","30.351","0.332","3","15",""
"7","R_ereJXWv1XOJYcql","standard","1","7","LP","0.661783713916415","56.32","56.985","NA","1.682","NA","0","15",""
"8","R_ereJXWv1XOJYcql","standard","1","8","LP","13.0392072382594","59.021","72.068","72.477","13.456","0.409","3","18",""
"9","R_ereJXWv1XOJYcql","standard","1","9","LP","0.264713485566566","73.484","73.752","74.191","0.707","0.439","3","21",""
"10","R_ereJXWv1XOJYcql","standard","1","10","LP","13.0392072382594","75.203","88.255","88.624","13.421","0.369","3","24",""
"11","R_ereJXWv1XOJYcql","standard","1","11","LP","8.51632916846187","89.638","98.155","98.51","8.872","0.355","3","27",""
"12","R_ereJXWv1XOJYcql","standard","1","12","LP","1.25738905644119","99.524","100.788","101.464","1.94","0.676","3","30",""
"13","R_ereJXWv1XOJYcql","standard","1","13","LP","19.8235243429556","102.489","122.324","122.728","20.239","0.404","3","33",""
"14","R_ereJXWv1XOJYcql","standard","1","14","LP","3.49090909090909","123.741","127.256","127.654","3.913","0.398","3","36",""
"15","R_ereJXWv1XOJYcql","standard","1","15","LP","5.5010771219302","128.658","134.175","134.559","5.901","0.384","3","39",""
"16","R_ereJXWv1XOJYcql","standard","1","16","LP","0.661783713916415","135.56","136.224","136.651","1.091","0.427","3","42",""
"17","R_ereJXWv1XOJYcql","standard","1","17","LP","0.264713485566566","137.658","137.941","138.325","0.667","0.384","3","45",""
"18","R_ereJXWv1XOJYcql","standard","1","18","LP","5.5010771219302","139.342","144.858","145.302","5.96","0.444","3","48",""
"19","R_ereJXWv1XOJYcql","standard","1","19","LP","0.264713485566566","146.307","146.59","146.906","0.599","0.316","3","51",""
"20","R_ereJXWv1XOJYcql","standard","1","20","LP","0.661783713916415","147.907","148.591","148.95","1.043","0.359","3","54",""
"21","R_ereJXWv1XOJYcql","standard","1","21","LP","13.0392072382594","149.952","163.004","163.375","13.423","0.371","3","57",""
"22","R_ereJXWv1XOJYcql","standard","1","22","LP","1.25738905644119","164.391","165.66","166.057","1.666","0.397","3","60",""
"23","R_ereJXWv1XOJYcql","standard","1","23","LP","3.49090909090909","167.075","170.574","170.957","3.882","0.383","3","63",""
"24","R_ereJXWv1XOJYcql","standard","1","24","LP","19.8235243429556","171.961","191.792","192.139","20.178","0.347","3","66",""
"25","R_ereJXWv1XOJYcql","standard","1","25","LP","19.8235243429556","193.16","213.008","213.331","20.171","0.323","3","69",""
"26","R_ereJXWv1XOJYcql","standard","1","26","LP","1.25738905644119","214.344","215.611","215.986","1.642","0.375","3","72",""
"27","R_ereJXWv1XOJYcql","standard","1","27","LP","0.661783713916415","216.994","217.677","218.138","1.144","0.461","3","75",""
"28","R_ereJXWv1XOJYcql","standard","1","28","LP","1.25738905644119","219.145","220.411","220.824","1.679","0.413","3","78",""
"29","R_ereJXWv1XOJYcql","standard","1","29","LP","19.8235243429556","221.828","241.662","242.092","20.264","0.43","3","81",""
"30","R_ereJXWv1XOJYcql","standard","1","30","LP","0.661783713916415","243.112","243.777","244.133","1.021","0.356","3","84",""
"31","R_ereJXWv1XOJYcql","standard","1","31","LP","13.0392072382594","245.147","258.193","258.604","13.457","0.411","3","87",""
"32","R_ereJXWv1XOJYcql","standard","1","32","LP","0.264713485566566","259.613","259.896","260.276","0.663","0.38","3","90",""
"33","R_ereJXWv1XOJYcql","standard","1","33","LP","30","261.281","291.282","291.567","30.286","0.285","3","93",""
"34","R_ereJXWv1XOJYcql","standard","1","34","LP","13.0392072382594","292.579","305.634","306.071","13.492","0.437","3","96",""
"35","R_ereJXWv1XOJYcql","standard","1","35","LP","3.49090909090909","307.082","310.577","310.945","3.863","0.368","3","99",""
"36","R_ereJXWv1XOJYcql","standard","1","36","LP","8.51632916846187","311.964","320.484","321.022","9.058","0.538","3","102",""
"37","R_ereJXWv1XOJYcql","standard","1","37","LP","0.264713485566566","322.034","322.314","322.879","0.845","0.565","3","105",""
"38","R_ereJXWv1XOJYcql","standard","1","38","LP","5.5010771219302","323.883","329.399","329.881","5.998","0.482","3","108",""
"39","R_ereJXWv1XOJYcql","standard","1","39","LP","3.49090909090909","330.901","334.392","334.737","3.836","0.345","3","111",""
"40","R_ereJXWv1XOJYcql","standard","1","40","LP","0.264713485566566","335.752","336.017","336.615","0.863","0.598","3","114",""
"41","R_ereJXWv1XOJYcql","standard","1","41","LP","8.51632916846187","337.618","346.139","347.134","9.516","0.995","3","114","6757"
"42","R_ereJXWv1XOJYcql","standard","1","42","LP","8.51632916846187","348.136","356.669","357.217","9.081","0.548","3","117",""
"43","R_ereJXWv1XOJYcql","standard","1","43","LP","13.0392072382594","358.22","371.265","372.098","13.878","0.833","3","120",""
"44","R_ereJXWv1XOJYcql","standard","1","44","LP","0.661783713916415","373.117","373.785","374.716","1.599","0.931","3","123",""
"45","R_ereJXWv1XOJYcql","standard","1","45","LP","2.15079707022835","375.723","377.885","378.313","2.59","0.428","3","126",""
"46","R_ereJXWv1XOJYcql","standard","1","46","LP","8.51632916846187","379.32","387.871","388.321","9.001","0.45","3","129",""
"47","R_ereJXWv1XOJYcql","standard","1","47","LP","3.49090909090909","389.324","392.82","393.285","3.961","0.465","3","132",""
"48","R_ereJXWv1XOJYcql","standard","1","48","LP","2.15079707022835","394.304","396.457","397.096","2.792","0.639","3","135",""
"49","R_ereJXWv1XOJYcql","standard","1","49","LP","0.661783713916415","398.119","398.788","399.648","1.529","0.86","3","138",""
"50","R_ereJXWv1XOJYcql","standard","1","50","LP","1.25738905644119","400.67","401.937","402.326","1.656","0.389","3","141",""
"51","R_ereJXWv1XOJYcql","standard","1","51","LP","0.264713485566566","403.338","403.619","404.018","0.68","0.399","3","144",""
"52","R_ereJXWv1XOJYcql","standard","1","52","LP","19.8235243429556","405.023","424.854","425.468","20.445","0.614","3","147",""
"53","R_ereJXWv1XOJYcql","standard","1","53","LP","1.25738905644119","426.486","427.744","428.202","1.716","0.458","3","150",""
"54","R_ereJXWv1XOJYcql","standard","1","54","LP","0.661783713916415","429.221","429.889","430.379","1.158","0.49","3","153",""
"55","R_ereJXWv1XOJYcql","standard","1","55","LP","30","431.389","461.407","461.775","30.386","0.368","3","156",""
"56","R_ereJXWv1XOJYcql","standard","1","56","LP","1.25738905644119","462.792","464.057","464.488","1.696","0.431","3","159",""
"57","R_ereJXWv1XOJYcql","standard","1","57","LP","13.0392072382594","465.492","478.541","479.002","13.51","0.461","3","162",""
"58","R_ereJXWv1XOJYcql","standard","1","58","LP","3.49090909090909","480.024","483.523","484.179","4.155","0.656","3","165",""
"59","R_ereJXWv1XOJYcql","standard","1","59","LP","0.264713485566566","485.192","485.473","485.874","0.682","0.401","3","168",""
"60","R_ereJXWv1XOJYcql","standard","1","60","LP","0.661783713916415","486.893","487.56","487.975","1.082","0.415","3","171",""
"61","R_ereJXWv1XOJYcql","standard","1","61","LP","5.5010771219302","488.977","494.493","494.968","5.991","0.475","3","174",""
"62","R_ereJXWv1XOJYcql","standard","1","62","LP","3.49090909090909","495.977","499.476","499.944","3.967","0.468","3","177",""
"63","R_ereJXWv1XOJYcql","standard","1","63","LP","19.8235243429556","500.959","520.793","521.431","20.472","0.638","3","180",""
"64","R_ereJXWv1XOJYcql","standard","1","64","LP","2.15079707022835","522.445","524.611","525.132","2.687","0.521","3","183",""
"65","R_ereJXWv1XOJYcql","standard","1","65","LP","13.0392072382594","526.145","539.194","539.646","13.501","0.452","3","186",""
"66","R_ereJXWv1XOJYcql","standard","1","66","LP","3.49090909090909","540.649","544.148","544.647","3.998","0.499","3","189",""
"67","R_ereJXWv1XOJYcql","standard","1","67","LP","5.5010771219302","545.661","551.178","551.673","6.012","0.495","3","192",""
"68","R_ereJXWv1XOJYcql","standard","1","68","LP","30","552.696","582.713","583.012","30.316","0.299","3","195",""
"69","R_ereJXWv1XOJYcql","standard","1","69","LP","0.264713485566566","584.015","584.282","584.642","0.627","0.36","3","198",""
"70","R_ereJXWv1XOJYcql","standard","1","70","LP","0.264713485566566","585.649","585.915","586.263","0.614","0.348","3","201",""
"71","R_ereJXWv1XOJYcql","standard","1","71","LP","3.49090909090909","587.265","590.763","591.19","3.925","0.427","3","204",""
"72","R_ereJXWv1XOJYcql","standard","1","72","LP","2.15079707022835","592.198","594.363","594.998","2.8","0.635","3","207",""
"73","R_ereJXWv1XOJYcql","standard","1","73","LP","8.51632916846187","596.014","604.534","604.905","8.891","0.371","3","210",""
"74","R_ereJXWv1XOJYcql","standard","1","74","LP","3.49090909090909","605.916","609.413","609.839","3.923","0.426","3","213",""
"75","R_ereJXWv1XOJYcql","standard","1","75","LP","5.5010771219302","610.841","616.348","616.73","5.889","0.382","3","216",""
"76","R_ereJXWv1XOJYcql","standard","1","76","LP","5.5010771219302","617.749","623.262","623.645","5.896","0.383","3","219",""
"77","R_ereJXWv1XOJYcql","standard","1","77","LP","1.25738905644119","624.651","625.916","626.438","1.787","0.522","3","222",""
"78","R_ereJXWv1XOJYcql","standard","1","78","LP","5.5010771219302","627.452","632.961","633.42","5.968","0.459","3","225",""
"79","R_ereJXWv1XOJYcql","standard","1","79","LP","0.661783713916415","634.435","635.116","635.726","1.291","0.61","3","228",""
"80","R_ereJXWv1XOJYcql","standard","1","80","LP","19.8235243429556","636.736","656.56","657.008","20.272","0.448","3","231",""
"81","R_ereJXWv1XOJYcql","standard","1","81","LP","5.5010771219302","658.019","663.521","664.026","6.007","0.505","3","234",""
"82","R_ereJXWv1XOJYcql","standard","1","82","LP","5.5010771219302","665.036","670.552","671.087","6.051","0.535","3","237",""
"83","R_ereJXWv1XOJYcql","standard","1","83","LP","1.25738905644119","672.102","673.383","673.836","1.734","0.453","3","240",""
"84","R_ereJXWv1XOJYcql","standard","1","84","LP","30","674.849","704.854","705.167","30.318","0.313","3","243",""
"85","R_ereJXWv1XOJYcql","standard","1","85","LP","0.661783713916415","706.168","706.837","707.368","1.2","0.531","3","246",""
"86","R_ereJXWv1XOJYcql","standard","1","86","LP","0.661783713916415","708.387","709.054","709.455","1.068","0.401","3","249",""
"87","R_ereJXWv1XOJYcql","standard","1","87","LP","1.25738905644119","710.466","711.734","712.138","1.672","0.404","3","252",""
"88","R_ereJXWv1XOJYcql","standard","1","88","LP","5.5010771219302","713.156","718.665","719.118","5.962","0.453","3","255",""
"89","R_ereJXWv1XOJYcql","standard","1","89","LP","0.661783713916415","720.121","720.788","721.215","1.094","0.427","3","258",""
"90","R_ereJXWv1XOJYcql","standard","1","90","LP","5.5010771219302","722.222","727.74","728.389","6.167","0.649","3","261",""
"91","R_ereJXWv1XOJYcql","standard","1","91","LP","0.661783713916415","729.405","730.087","730.563","1.158","0.476","3","264",""
"92","R_ereJXWv1XOJYcql","standard","1","92","LP","5.5010771219302","731.573","737.088","737.623","6.05","0.535","3","267",""
"93","R_ereJXWv1XOJYcql","standard","1","93","LP","8.51632916846187","738.643","747.173","747.63","8.987","0.457","3","270",""
"94","R_ereJXWv1XOJYcql","standard","1","94","LP","0.264713485566566","748.642","748.907","749.404","0.762","0.497","3","273",""
"95","R_ereJXWv1XOJYcql","standard","1","95","LP","5.5010771219302","750.423","755.934","756.404","5.981","0.47","3","276",""
"96","R_ereJXWv1XOJYcql","standard","1","96","LP","19.8235243429556","757.427","777.257","777.729","20.302","0.472","3","279",""
"97","R_ereJXWv1XOJYcql","standard","1","97","LP","1.25738905644119","778.742","780.007","780.537","1.795","0.53","3","282",""
"98","R_ereJXWv1XOJYcql","standard","1","98","LP","2.15079707022835","781.542","783.707","784.185","2.643","0.478","3","285",""
"99","R_ereJXWv1XOJYcql","standard","1","99","LP","0.264713485566566","785.208","785.492","786.188","0.98","0.696","3","288",""
"100","R_ereJXWv1XOJYcql","standard","1","100","LP","1.25738905644119","787.193","788.456","788.898","1.705","0.442","3","291",""
"101","R_ereJXWv1XOJYcql","standard","1","101","LP","1.25738905644119","789.908","791.17","791.601","1.693","0.431","3","294",""
"102","R_ereJXWv1XOJYcql","standard","1","102","LP","3.49090909090909","792.624","796.126","796.552","3.928","0.426","3","297",""
"103","R_ereJXWv1XOJYcql","standard","1","103","LP","0.264713485566566","797.56","797.83","798.24","0.68","0.41","3","300",""
"104","R_ereJXWv1XOJYcql","standard","1","104","LP","13.0392072382594","799.244","812.293","812.807","13.563","0.514","3","303",""
"105","R_ereJXWv1XOJYcql","standard","1","105","LP","30","813.825","843.833","844.201","30.376","0.368","3","306",""
"106","R_ereJXWv1XOJYcql","standard","1","106","LP","5.5010771219302","845.212","850.727","851.155","5.943","0.428","3","309",""
"107","R_ereJXWv1XOJYcql","standard","1","107","LP","13.0392072382594","852.163","865.21","865.669","13.506","0.459","3","312",""
"108","R_ereJXWv1XOJYcql","standard","1","108","LP","13.0392072382594","866.68","879.729","880.203","13.523","0.474","3","315",""
"109","R_ereJXWv1XOJYcql","standard","1","109","LP","0.264713485566566","881.215","881.497","881.852","0.637","0.355","3","318",""
"110","R_ereJXWv1XOJYcql","standard","2","1","LP","5.5010771219302","0.001","NaN","3.901","3.9","NaN","0","318",NA
"111","R_ereJXWv1XOJYcql","standard","2","2","LP","5.5010771219302","4.918","10.436","10.89","5.972","0.454","3","321",NA
"112","R_ereJXWv1XOJYcql","standard","2","3","LP","8.51632916846187","11.902","20.435","20.782","8.88","0.347","3","324",NA
"113","R_ereJXWv1XOJYcql","standard","2","4","LP","2.15079707022835","21.786","23.952","24.429","2.643","0.477","3","327",NA
"114","R_ereJXWv1XOJYcql","standard","2","5","LP","5.5010771219302","25.448","30.954","31.393","5.945","0.439","3","330",NA
"115","R_ereJXWv1XOJYcql","standard","2","6","LP","8.51632916846187","32.403","40.921","41.349","8.946","0.428","3","333",NA
"116","R_ereJXWv1XOJYcql","standard","2","7","LP","1.25738905644119","42.354","43.63","44.024","1.67","0.394","3","336",NA
"117","R_ereJXWv1XOJYcql","standard","2","8","LP","3.49090909090909","45.036","48.54","48.938","3.902","0.398","3","339",NA
"118","R_ereJXWv1XOJYcql","standard","2","9","LP","30","49.953","79.956","80.289","30.336","0.333","3","342",NA
"119","R_ereJXWv1XOJYcql","standard","2","10","LP","8.51632916846187","81.306","89.84","90.315","9.009","0.475","3","345",NA
"120","R_ereJXWv1XOJYcql","standard","2","11","LP","1.25738905644119","91.325","92.588","93.1","1.775","0.512","3","348",NA
"121","R_ereJXWv1XOJYcql","standard","2","12","LP","30","94.106","124.108","124.516","30.41","0.408","3","351",NA
"122","R_ereJXWv1XOJYcql","standard","2","13","LP","13.0392072382594","125.525","138.575","139.064","13.539","0.489","3","354",NA
"123","R_ereJXWv1XOJYcql","standard","2","14","LP","0.264713485566566","140.067","140.346","140.783","0.716","0.437","3","357",NA
"124","R_ereJXWv1XOJYcql","standard","2","15","LP","1.25738905644119","141.793","143.072","143.512","1.719","0.44","3","360",NA
"125","R_ereJXWv1XOJYcql","standard","2","16","LP","1.25738905644119","144.513","145.793","146.472","1.959","0.679","3","363",NA
"126","R_ereJXWv1XOJYcql","standard","2","17","LP","19.8235243429556","147.478","167.309","167.763","20.285","0.454","3","366",NA
"127","R_ereJXWv1XOJYcql","standard","2","18","LP","30","168.778","198.796","199.085","30.307","0.289","3","369",NA
"128","R_ereJXWv1XOJYcql","standard","2","19","LP","0.661783713916415","200.096","200.778","201.121","1.025","0.343","3","372",NA
"129","R_ereJXWv1XOJYcql","standard","2","20","LP","2.15079707022835","202.128","204.296","204.693","2.565","0.397","3","375",NA
"130","R_ereJXWv1XOJYcql","standard","2","21","LP","2.15079707022835","205.712","207.878","208.342","2.63","0.464","3","378",NA
"131","R_ereJXWv1XOJYcql","standard","2","22","LP","13.0392072382594","209.347","222.396","222.92","13.573","0.524","3","381",NA
"132","R_ereJXWv1XOJYcql","standard","2","23","LP","1.25738905644119","223.931","225.197","225.614","1.683","0.417","3","384",NA
"133","R_ereJXWv1XOJYcql","standard","2","24","LP","0.661783713916415","226.615","227.298","227.747","1.132","0.449","3","387",NA
"134","R_ereJXWv1XOJYcql","standard","2","25","LP","8.51632916846187","228.748","237.266","237.766","9.018","0.5","3","390",NA
"135","R_ereJXWv1XOJYcql","standard","2","26","LP","1.25738905644119","238.782","240.048","240.503","1.721","0.455","3","393",NA
"136","R_ereJXWv1XOJYcql","standard","2","27","LP","1.25738905644119","241.514","242.782","243.257","1.743","0.475","3","396",NA
"137","R_ereJXWv1XOJYcql","standard","2","28","LP","1.25738905644119","244.258","245.517","246.028","1.77","0.511","3","399",NA
"138","R_ereJXWv1XOJYcql","standard","2","29","LP","1.25738905644119","247.048","248.316","249.03","1.982","0.714","3","402",NA
"139","R_ereJXWv1XOJYcql","standard","2","30","LP","8.51632916846187","250.048","258.583","259.012","8.964","0.429","3","405",NA
"140","R_ereJXWv1XOJYcql","standard","2","31","LP","1.25738905644119","260.016","261.282","261.677","1.661","0.395","3","408",NA
"141","R_ereJXWv1XOJYcql","standard","2","32","LP","8.51632916846187","262.683","271.215","271.737","9.054","0.522","3","411",NA
"142","R_ereJXWv1XOJYcql","standard","2","33","LP","5.5010771219302","272.75","278.258","278.671","5.921","0.413","3","414",NA
"143","R_ereJXWv1XOJYcql","standard","2","34","LP","0.264713485566566","279.683","279.967","280.413","0.73","0.446","3","417",NA
"144","R_ereJXWv1XOJYcql","standard","2","35","LP","5.5010771219302","281.418","286.933","287.299","5.881","0.366","3","420",NA
"145","R_ereJXWv1XOJYcql","standard","2","36","LP","30","288.316","318.321","318.728","30.412","0.407","3","423",NA
"146","R_ereJXWv1XOJYcql","standard","2","37","LP","1.25738905644119","319.736","321.002","321.431","1.695","0.429","3","426",NA
"147","R_ereJXWv1XOJYcql","standard","2","38","LP","19.8235243429556","322.435","342.269","342.805","20.37","0.536","3","429",NA
"148","R_ereJXWv1XOJYcql","standard","2","39","LP","13.0392072382594","343.821","356.872","357.387","13.566","0.515","3","432",NA
"149","R_ereJXWv1XOJYcql","standard","2","40","LP","0.264713485566566","358.403","358.672","359.276","0.873","0.604","3","435",NA
"150","R_ereJXWv1XOJYcql","standard","2","41","LP","0.661783713916415","360.288","360.955","361.526","1.238","0.571","3","438",NA
"151","R_ereJXWv1XOJYcql","standard","2","42","LP","5.5010771219302","362.541","368.054","368.543","6.002","0.489","3","441",NA
"152","R_ereJXWv1XOJYcql","standard","2","43","LP","3.49090909090909","369.558","373.054","373.458","3.9","0.404","3","444",NA
"153","R_ereJXWv1XOJYcql","standard","2","44","LP","2.15079707022835","374.473","376.627","377.264","2.791","0.637","3","447",NA
"154","R_ereJXWv1XOJYcql","standard","2","45","LP","2.15079707022835","378.272","380.44","380.879","2.607","0.439","3","450",NA
"155","R_ereJXWv1XOJYcql","standard","2","46","LP","30","381.889","411.89","412.233","30.344","0.343","3","453",NA
"156","R_ereJXWv1XOJYcql","standard","2","47","LP","1.25738905644119","413.24","414.507","415.045","1.805","0.538","3","456",NA
"157","R_ereJXWv1XOJYcql","standard","2","48","LP","0.661783713916415","416.05","416.725","417.141","1.091","0.416","3","459",NA
"158","R_ereJXWv1XOJYcql","standard","2","49","LP","0.264713485566566","418.143","418.461","418.95","0.807","0.489","3","462",NA
"159","R_ereJXWv1XOJYcql","standard","2","50","LP","13.0392072382594","419.954","433.008","433.697","13.743","0.689","3","465",NA
"160","R_ereJXWv1XOJYcql","standard","2","51","LP","8.51632916846187","434.707","443.227","443.695","8.988","0.468","3","468",NA
"161","R_ereJXWv1XOJYcql","standard","2","52","LP","3.49090909090909","444.707","448.208","448.721","4.014","0.513","3","471",NA
"162","R_ereJXWv1XOJYcql","standard","2","53","LP","13.0392072382594","449.726","462.771","463.272","13.546","0.501","3","474",NA
"163","R_ereJXWv1XOJYcql","standard","2","54","LP","1.25738905644119","464.276","465.542","465.946","1.67","0.404","3","477",NA
"164","R_ereJXWv1XOJYcql","standard","2","55","LP","2.15079707022835","466.955","469.111","469.534","2.579","0.423","3","480",NA
"165","R_ereJXWv1XOJYcql","standard","2","56","LP","0.661783713916415","470.545","471.211","471.617","1.072","0.406","3","483",NA
"166","R_ereJXWv1XOJYcql","standard","2","57","LP","1.25738905644119","472.629","473.891","474.269","1.64","0.378","3","486",NA
"167","R_ereJXWv1XOJYcql","standard","2","58","LP","19.8235243429556","475.278","495.113","495.511","20.233","0.398","3","489",NA
"168","R_ereJXWv1XOJYcql","standard","2","59","LP","3.49090909090909","496.513","500.01","500.416","3.903","0.406","3","492",NA
"169","R_ereJXWv1XOJYcql","standard","2","60","LP","3.49090909090909","501.419","504.911","505.574","4.155","0.663","3","495",NA
"170","R_ereJXWv1XOJYcql","standard","2","61","LP","0.661783713916415","506.58","507.247","507.603","1.023","0.356","3","498",NA
"171","R_ereJXWv1XOJYcql","standard","2","62","LP","1.25738905644119","508.612","509.879","510.276","1.664","0.397","3","501",NA
"172","R_ereJXWv1XOJYcql","standard","2","63","LP","19.8235243429556","511.295","531.127",NA,"20.836",NA,"0","501",NA
"173","R_ereJXWv1XOJYcql","standard","2","64","LP","19.8235243429556","533.144","552.971","553.634","20.49","0.663","3","504",NA
"174","R_ereJXWv1XOJYcql","standard","2","65","LP","5.5010771219302","554.649","560.154","560.657","6.008","0.503","3","507",NA
"175","R_ereJXWv1XOJYcql","standard","2","66","LP","2.15079707022835","561.658","563.816","564.265","2.607","0.449","3","510",NA
"176","R_ereJXWv1XOJYcql","standard","2","67","LP","30","565.276","595.283","595.661","30.385","0.378","3","513",NA
