"","subject_id","condition","n_block","n_trialIdx","f_timing_condition","n_scheduled_delay","n_trial_start_time","n_rewarded_time_fin","n_sell_time_fin","n_time_waited_fin","RT_fin","n_trial_earnings_fin","n_total_earnings_fin","keypress_times"
"1","R_O2Q4CZUKVAi9tXH","standard","1","1","LP","8.51632916846187","0.002","8.533","8.818","8.816","0.285","3","3",""
"2","R_O2Q4CZUKVAi9tXH","standard","1","2","LP","0.264713485566566","9.824","10.109","NA","1.295","NA","0","3",""
"3","R_O2Q4CZUKVAi9tXH","standard","1","3","LP","19.8235243429556","12.121","31.967","32.279","20.158","0.312","3","6",""
"4","R_O2Q4CZUKVAi9tXH","standard","1","4","LP","2.15079707022835","33.281","35.431","35.734","2.453","0.303","3","9",""
"5","R_O2Q4CZUKVAi9tXH","standard","1","5","LP","2.15079707022835","36.737","38.889","39.171","2.434","0.282","3","12",""
"6","R_O2Q4CZUKVAi9tXH","standard","1","6","LP","0.661783713916415","40.192","40.867","41.177","0.985","0.31","3","15",""
"7","R_O2Q4CZUKVAi9tXH","standard","1","7","LP","3.49090909090909","42.186","45.681","45.993","3.807","0.312","3","18",""
"8","R_O2Q4CZUKVAi9tXH","standard","1","8","LP","19.8235243429556","47.001","66.826","67.129","20.128","0.303","3","18","13027"
"9","R_O2Q4CZUKVAi9tXH","standard","1","9","LP","3.49090909090909","68.131","71.633","71.92","3.789","0.287","3","21",""
"10","R_O2Q4CZUKVAi9tXH","standard","1","10","LP","8.51632916846187","72.924","81.45","81.758","8.834","0.308","3","24",""
"11","R_O2Q4CZUKVAi9tXH","standard","1","11","LP","5.5010771219302","82.764","88.273","88.554","5.79","0.281","3","27",""
"12","R_O2Q4CZUKVAi9tXH","standard","1","12","LP","19.8235243429556","89.573","109.414","109.716","20.143","0.302","3","30",""
"13","R_O2Q4CZUKVAi9tXH","standard","1","13","LP","1.25738905644119","110.72","111.986","112.285","1.565","0.299","3","33",""
"14","R_O2Q4CZUKVAi9tXH","standard","1","14","LP","0.264713485566566","113.289","113.558","113.885","0.596","0.327","3","36",""
"15","R_O2Q4CZUKVAi9tXH","standard","1","15","LP","30","114.892","144.896","145.233","30.341","0.337","3","39",""
"16","R_O2Q4CZUKVAi9tXH","standard","1","16","LP","5.5010771219302","146.241","151.756","152.113","5.872","0.357","3","42",""
"17","R_O2Q4CZUKVAi9tXH","standard","1","17","LP","2.15079707022835","153.125","155.28","NA","3.165","NA","0","42",""
"18","R_O2Q4CZUKVAi9tXH","standard","1","18","LP","8.51632916846187","157.307","165.827","166.135","8.828","0.308","3","45",""
"19","R_O2Q4CZUKVAi9tXH","standard","1","19","LP","0.264713485566566","167.139","167.409","167.728","0.589","0.319","3","48",""
"20","R_O2Q4CZUKVAi9tXH","standard","1","20","LP","1.25738905644119","168.741","170.001","170.344","1.603","0.343","3","51",""
"21","R_O2Q4CZUKVAi9tXH","standard","1","21","LP","1.25738905644119","171.353","172.613","172.927","1.574","0.314","3","54",""
"22","R_O2Q4CZUKVAi9tXH","standard","1","22","LP","2.15079707022835","173.929","176.088","176.415","2.486","0.327","3","57",""
"23","R_O2Q4CZUKVAi9tXH","standard","1","23","LP","1.25738905644119","177.428","178.701","178.949","1.521","0.248","3","60",""
"24","R_O2Q4CZUKVAi9tXH","standard","1","24","LP","19.8235243429556","179.954","199.785","200.102","20.148","0.317","3","63",""
"25","R_O2Q4CZUKVAi9tXH","standard","1","25","LP","1.25738905644119","201.106","202.369","202.755","1.649","0.386","3","66",""
"26","R_O2Q4CZUKVAi9tXH","standard","1","26","LP","1.25738905644119","203.761","205.029","205.439","1.678","0.41","3","69",""
"27","R_O2Q4CZUKVAi9tXH","standard","1","27","LP","1.25738905644119","206.452","207.71","208.155","1.703","0.445","3","72",""
"28","R_O2Q4CZUKVAi9tXH","standard","1","28","LP","3.49090909090909","209.161","212.666","213.008","3.847","0.342","3","75",""
"29","R_O2Q4CZUKVAi9tXH","standard","1","29","LP","13.0392072382594","214.02","227.102","227.442","13.422","0.34","3","78",""
"30","R_O2Q4CZUKVAi9tXH","standard","1","30","LP","13.0392072382594","228.447","241.493","241.8","13.353","0.307","3","81",""
"31","R_O2Q4CZUKVAi9tXH","standard","1","31","LP","30","242.807","272.823","273.138","30.331","0.315","3","84",""
"32","R_O2Q4CZUKVAi9tXH","standard","1","32","LP","0.264713485566566","274.141","274.422","274.683","0.542","0.261","3","87",""
"33","R_O2Q4CZUKVAi9tXH","standard","1","33","LP","5.5010771219302","275.685","281.189","281.496","5.811","0.307","3","90",""
"34","R_O2Q4CZUKVAi9tXH","standard","1","34","LP","19.8235243429556","282.512","302.365","302.67","20.158","0.305","3","93",""
"35","R_O2Q4CZUKVAi9tXH","standard","1","35","LP","3.49090909090909","303.672","307.168","307.561","3.889","0.393","3","96",""
"36","R_O2Q4CZUKVAi9tXH","standard","1","36","LP","5.5010771219302","308.567","314.073","314.484","5.917","0.411","3","99",""
"37","R_O2Q4CZUKVAi9tXH","standard","1","37","LP","5.5010771219302","315.489","320.998","321.345","5.856","0.347","3","102",""
"38","R_O2Q4CZUKVAi9tXH","standard","1","38","LP","0.264713485566566","322.354","322.625","323.012","0.658","0.387","3","105",""
"39","R_O2Q4CZUKVAi9tXH","standard","1","39","LP","5.5010771219302","324.03","329.54","329.882","5.852","0.342","3","108",""
"40","R_O2Q4CZUKVAi9tXH","standard","1","40","LP","1.25738905644119","330.89","332.162","332.514","1.624","0.352","3","111",""
"41","R_O2Q4CZUKVAi9tXH","standard","1","41","LP","13.0392072382594","333.533","346.594","346.894","13.361","0.3","3","114",""
"42","R_O2Q4CZUKVAi9tXH","standard","1","42","LP","5.5010771219302","347.901","353.406","353.748","5.847","0.342","3","117",""
"43","R_O2Q4CZUKVAi9tXH","standard","1","43","LP","19.8235243429556","354.75","374.585","374.967","20.217","0.382","3","120",""
"44","R_O2Q4CZUKVAi9tXH","standard","1","44","LP","0.661783713916415","375.975","376.646","376.943","0.968","0.297","3","123",""
"45","R_O2Q4CZUKVAi9tXH","standard","1","45","LP","3.49090909090909","377.945","381.438","381.728","3.783","0.29","3","126",""
"46","R_O2Q4CZUKVAi9tXH","standard","1","46","LP","5.5010771219302","382.742","388.246","388.625","5.883","0.379","3","129",""
"47","R_O2Q4CZUKVAi9tXH","standard","1","47","LP","1.25738905644119","389.63","390.898","391.22","1.59","0.322","3","132",""
"48","R_O2Q4CZUKVAi9tXH","standard","1","48","LP","5.5010771219302","392.23","397.745","398.075","5.845","0.33","3","135",""
"49","R_O2Q4CZUKVAi9tXH","standard","1","49","LP","13.0392072382594","399.079","412.141","412.441","13.362","0.3","3","138",""
"50","R_O2Q4CZUKVAi9tXH","standard","1","50","LP","13.0392072382594","413.442","426.49","426.832","13.39","0.342","3","141",""
"51","R_O2Q4CZUKVAi9tXH","standard","1","51","LP","0.264713485566566","427.85","428.122","428.432","0.582","0.31","3","144",""
"52","R_O2Q4CZUKVAi9tXH","standard","1","52","LP","8.51632916846187","429.434","437.956","438.384","8.95","0.428","3","147",""
"53","R_O2Q4CZUKVAi9tXH","standard","1","53","LP","5.5010771219302","439.384","444.89","445.242","5.858","0.352","3","150",""
"54","R_O2Q4CZUKVAi9tXH","standard","1","54","LP","0.264713485566566","446.259","446.54","447.027","0.768","0.487","3","153",""
"55","R_O2Q4CZUKVAi9tXH","standard","1","55","LP","13.0392072382594","448.036","461.084","461.527","13.491","0.443","3","156",""
"56","R_O2Q4CZUKVAi9tXH","standard","1","56","LP","0.661783713916415","462.531","463.202","463.474","0.943","0.272","3","159",""
"57","R_O2Q4CZUKVAi9tXH","standard","1","57","LP","5.5010771219302","464.483","470.007","470.294","5.811","0.287","3","159","2061"
"58","R_O2Q4CZUKVAi9tXH","standard","1","58","LP","5.5010771219302","471.303","476.807","477.145","5.842","0.338","3","162",""
"59","R_O2Q4CZUKVAi9tXH","standard","1","59","LP","2.15079707022835","478.153","480.312","480.642","2.489","0.33","3","165",""
"60","R_O2Q4CZUKVAi9tXH","standard","1","60","LP","0.661783713916415","481.648","482.31","482.652","1.004","0.342","3","168",""
"61","R_O2Q4CZUKVAi9tXH","standard","1","61","LP","0.264713485566566","483.661","483.927","484.239","0.578","0.312","3","171",""
"62","R_O2Q4CZUKVAi9tXH","standard","1","62","LP","0.661783713916415","485.263","485.93","486.212","0.949","0.282","3","174",""
"63","R_O2Q4CZUKVAi9tXH","standard","1","63","LP","30","487.216","517.232","517.524","30.308","0.292","3","177",""
"64","R_O2Q4CZUKVAi9tXH","standard","1","64","LP","19.8235243429556","518.527","538.364","538.678","20.151","0.314","3","180",""
"65","R_O2Q4CZUKVAi9tXH","standard","1","65","LP","8.51632916846187","539.695","548.216","548.545","8.85","0.329","3","183",""
"66","R_O2Q4CZUKVAi9tXH","standard","1","66","LP","2.15079707022835","549.551","551.702","552.119","2.568","0.417","3","186",""
"67","R_O2Q4CZUKVAi9tXH","standard","1","67","LP","3.49090909090909","553.121","556.615","557.045","3.924","0.43","3","189",""
"68","R_O2Q4CZUKVAi9tXH","standard","1","68","LP","30","558.058","588.091","588.435","30.377","0.344","3","192",""
"69","R_O2Q4CZUKVAi9tXH","standard","1","69","LP","1.25738905644119","589.443","590.702","591.059","1.616","0.357","3","195",""
"70","R_O2Q4CZUKVAi9tXH","standard","1","70","LP","1.25738905644119","592.069","593.339","593.654","1.585","0.315","3","198",""
"71","R_O2Q4CZUKVAi9tXH","standard","1","71","LP","5.5010771219302","594.663","600.174","600.526","5.863","0.352","3","201",""
"72","R_O2Q4CZUKVAi9tXH","standard","1","72","LP","0.661783713916415","601.528","602.192","602.539","1.011","0.347","3","204",""
"73","R_O2Q4CZUKVAi9tXH","standard","1","73","LP","30","603.544","633.552","633.851","30.307","0.299","3","207",""
"74","R_O2Q4CZUKVAi9tXH","standard","1","74","LP","0.661783713916415","634.865","635.535","635.838","0.973","0.303","3","210",""
"75","R_O2Q4CZUKVAi9tXH","standard","1","75","LP","3.49090909090909","636.841","640.337","640.948","4.107","0.611","3","213",""
"76","R_O2Q4CZUKVAi9tXH","standard","1","76","LP","2.15079707022835","641.963","644.121","644.493","2.53","0.372","3","216",""
"77","R_O2Q4CZUKVAi9tXH","standard","1","77","LP","1.25738905644119","645.507","646.78","647.159","1.652","0.379","3","219",""
"78","R_O2Q4CZUKVAi9tXH","standard","1","78","LP","1.25738905644119","648.173","649.437","649.765","1.592","0.328","3","222",""
"79","R_O2Q4CZUKVAi9tXH","standard","1","79","LP","2.15079707022835","650.773","652.931","653.244","2.471","0.313","3","225",""
"80","R_O2Q4CZUKVAi9tXH","standard","1","80","LP","2.15079707022835","654.253","656.406","656.699","2.446","0.293","3","228",""
"81","R_O2Q4CZUKVAi9tXH","standard","1","81","LP","8.51632916846187","657.704","666.241","666.662","8.958","0.421","3","231",""
"82","R_O2Q4CZUKVAi9tXH","standard","1","82","LP","0.661783713916415","667.671","668.34","668.63","0.959","0.29","3","234",""
"83","R_O2Q4CZUKVAi9tXH","standard","1","83","LP","30","669.631","699.637","699.939","30.308","0.302","3","237",""
"84","R_O2Q4CZUKVAi9tXH","standard","1","84","LP","0.264713485566566","700.944","701.215","701.483","0.539","0.268","3","240",""
"85","R_O2Q4CZUKVAi9tXH","standard","1","85","LP","0.661783713916415","702.485","703.154","703.44","0.955","0.286","3","243",""
"86","R_O2Q4CZUKVAi9tXH","standard","1","86","LP","0.661783713916415","704.454","705.123","705.401","0.947","0.278","3","246",""
"87","R_O2Q4CZUKVAi9tXH","standard","1","87","LP","30","706.434","736.452","736.723","30.289","0.271","3","249",""
"88","R_O2Q4CZUKVAi9tXH","standard","1","88","LP","5.5010771219302","737.732","743.236","743.584","5.852","0.348","3","252",""
"89","R_O2Q4CZUKVAi9tXH","standard","1","89","LP","13.0392072382594","744.594","757.648","758.013","13.419","0.365","3","255",""
"90","R_O2Q4CZUKVAi9tXH","standard","1","90","LP","19.8235243429556","759.021","778.862","779.204","20.183","0.342","3","258",""
"91","R_O2Q4CZUKVAi9tXH","standard","1","91","LP","13.0392072382594","780.216","793.262","793.608","13.392","0.346","3","261",""
"92","R_O2Q4CZUKVAi9tXH","standard","1","92","LP","13.0392072382594","794.62","807.664","807.999","13.379","0.335","3","264",""
"93","R_O2Q4CZUKVAi9tXH","standard","1","93","LP","5.5010771219302","809.006","814.51","814.91","5.904","0.4","3","267",""
"94","R_O2Q4CZUKVAi9tXH","standard","1","94","LP","2.15079707022835","815.919","818.076","818.412","2.493","0.336","3","270",""
"95","R_O2Q4CZUKVAi9tXH","standard","1","95","LP","3.49090909090909","819.414","822.922","823.276","3.862","0.354","3","273",""
"96","R_O2Q4CZUKVAi9tXH","standard","1","96","LP","3.49090909090909","824.304","827.81","828.127","3.823","0.317","3","276",""
"97","R_O2Q4CZUKVAi9tXH","standard","1","97","LP","13.0392072382594","829.132","842.182","842.61","13.478","0.428","3","279",""
"98","R_O2Q4CZUKVAi9tXH","standard","1","98","LP","0.661783713916415","843.619","844.283","844.548","0.929","0.265","3","282",""
"99","R_O2Q4CZUKVAi9tXH","standard","1","99","LP","2.15079707022835","845.55","847.707","848.023","2.473","0.316","3","285",""
"100","R_O2Q4CZUKVAi9tXH","standard","1","100","LP","8.51632916846187","849.026","857.559","857.928","8.902","0.369","3","288",""
"101","R_O2Q4CZUKVAi9tXH","standard","1","101","LP","5.5010771219302","858.936","864.45","864.769","5.833","0.319","3","291",""
"102","R_O2Q4CZUKVAi9tXH","standard","1","102","LP","0.264713485566566","865.776","866.044","866.359","0.583","0.315","3","294",""
"103","R_O2Q4CZUKVAi9tXH","standard","1","103","LP","30","867.376","897.393","897.674","30.298","0.281","3","297",""
"104","R_O2Q4CZUKVAi9tXH","standard","2","1","LP","5.5010771219302","0","NaN","3.325","3.325","NaN","0","297",NA
"105","R_O2Q4CZUKVAi9tXH","standard","2","2","LP","13.0392072382594","4.331","NaN","7.503","3.172","NaN","0","297",NA
"106","R_O2Q4CZUKVAi9tXH","standard","2","3","LP","1.25738905644119","8.508","9.77","10.07","1.562","0.3","3","300",NA
"107","R_O2Q4CZUKVAi9tXH","standard","2","4","LP","0.661783713916415","11.074","11.737","12.086","1.012","0.349","3","303",NA
"108","R_O2Q4CZUKVAi9tXH","standard","2","5","LP","8.51632916846187","13.096","NaN","17.424","4.328","NaN","0","303",NA
"109","R_O2Q4CZUKVAi9tXH","standard","2","6","LP","5.5010771219302","18.428","NaN","19.536","1.108","NaN","0","303",NA
"110","R_O2Q4CZUKVAi9tXH","standard","2","7","LP","30","20.539","NaN","23.889","3.35","NaN","0","303",NA
"111","R_O2Q4CZUKVAi9tXH","standard","2","8","LP","30","24.899","NaN","28.429","3.53","NaN","0","303",NA
"112","R_O2Q4CZUKVAi9tXH","standard","2","9","LP","13.0392072382594","29.434","NaN","39.041","9.607","NaN","0","303",NA
"113","R_O2Q4CZUKVAi9tXH","standard","2","10","LP","13.0392072382594","40.049","NaN","44.087","4.038","NaN","0","303",NA
"114","R_O2Q4CZUKVAi9tXH","standard","2","11","LP","8.51632916846187","45.089","NaN","48.629","3.54","NaN","0","303",NA
"115","R_O2Q4CZUKVAi9tXH","standard","2","12","LP","1.25738905644119","49.631","50.897","51.275","1.644","0.378","3","306",NA
"116","R_O2Q4CZUKVAi9tXH","standard","2","13","LP","13.0392072382594","52.282","NaN","55.031","2.749","NaN","0","306",NA
"117","R_O2Q4CZUKVAi9tXH","standard","2","14","LP","0.661783713916415","56.033","56.698","56.997","0.964","0.299","3","309",NA
"118","R_O2Q4CZUKVAi9tXH","standard","2","15","LP","0.264713485566566","58.015","58.281","58.589","0.574","0.308","3","312",NA
"119","R_O2Q4CZUKVAi9tXH","standard","2","16","LP","2.15079707022835","59.593","61.767","62.093","2.5","0.326","3","315",NA
"120","R_O2Q4CZUKVAi9tXH","standard","2","17","LP","5.5010771219302","63.102","68.607","68.967","5.865","0.36","3","318",NA
"121","R_O2Q4CZUKVAi9tXH","standard","2","18","LP","2.15079707022835","69.987","72.139","72.52","2.533","0.381","3","321",NA
"122","R_O2Q4CZUKVAi9tXH","standard","2","19","LP","8.51632916846187","73.52","NaN","79.995","6.475","NaN","0","321",NA
"123","R_O2Q4CZUKVAi9tXH","standard","2","20","LP","0.661783713916415","81.014","81.678","82.005","0.991","0.327","3","324",NA
"124","R_O2Q4CZUKVAi9tXH","standard","2","21","LP","19.8235243429556","83.006","NaN","86.767","3.761","NaN","0","324",NA
"125","R_O2Q4CZUKVAi9tXH","standard","2","22","LP","13.0392072382594","87.775","NaN","94.702","6.927","NaN","0","324",NA
"126","R_O2Q4CZUKVAi9tXH","standard","2","23","LP","30","95.713","NaN","99.017","3.304","NaN","0","324",NA
"127","R_O2Q4CZUKVAi9tXH","standard","2","24","LP","8.51632916846187","100.023","NaN","101.746","1.723","NaN","0","324",NA
"128","R_O2Q4CZUKVAi9tXH","standard","2","25","LP","0.661783713916415","102.756","103.423","103.776","1.02","0.353","3","327",NA
"129","R_O2Q4CZUKVAi9tXH","standard","2","26","LP","0.661783713916415","104.783","105.45","105.746","0.963","0.296","3","330",NA
"130","R_O2Q4CZUKVAi9tXH","standard","2","27","LP","0.264713485566566","106.758","107.032","107.329","0.571","0.297","3","333",NA
"131","R_O2Q4CZUKVAi9tXH","standard","2","28","LP","5.5010771219302","108.339","NaN","112.263","3.924","NaN","0","333",NA
"132","R_O2Q4CZUKVAi9tXH","standard","2","29","LP","5.5010771219302","113.27","NaN","114.183","0.913","NaN","0","333",NA
"133","R_O2Q4CZUKVAi9tXH","standard","2","30","LP","1.25738905644119","115.19","116.45","116.799","1.609","0.349","3","336",NA
"134","R_O2Q4CZUKVAi9tXH","standard","2","31","LP","5.5010771219302","117.815","NaN","122.449","4.634","NaN","0","336",NA
"135","R_O2Q4CZUKVAi9tXH","standard","2","32","LP","1.25738905644119","123.454","124.726","125.014","1.56","0.288","3","339",NA
"136","R_O2Q4CZUKVAi9tXH","standard","2","33","LP","8.51632916846187","126.018","NaN","129.482","3.464","NaN","0","339",NA
"137","R_O2Q4CZUKVAi9tXH","standard","2","34","LP","19.8235243429556","130.504","NaN","133.968","3.464","NaN","0","339",NA
"138","R_O2Q4CZUKVAi9tXH","standard","2","35","LP","1.25738905644119","134.975","136.237","136.616","1.641","0.379","3","342",NA
"139","R_O2Q4CZUKVAi9tXH","standard","2","36","LP","5.5010771219302","137.618","NaN","141.967","4.349","NaN","0","342",NA
"140","R_O2Q4CZUKVAi9tXH","standard","2","37","LP","3.49090909090909","142.97","146.481","146.808","3.838","0.327","3","345",NA
"141","R_O2Q4CZUKVAi9tXH","standard","2","38","LP","8.51632916846187","147.81","NaN","153.407","5.597","NaN","0","345",NA
"142","R_O2Q4CZUKVAi9tXH","standard","2","39","LP","2.15079707022835","154.41","156.562","156.895","2.485","0.333","3","348",NA
"143","R_O2Q4CZUKVAi9tXH","standard","2","40","LP","0.264713485566566","157.905","158.185","158.491","0.586","0.306","3","351",NA
"144","R_O2Q4CZUKVAi9tXH","standard","2","41","LP","19.8235243429556","159.507","NaN","164.238","4.731","NaN","0","351",NA
"145","R_O2Q4CZUKVAi9tXH","standard","2","42","LP","13.0392072382594","165.241","NaN","168.848","3.607","NaN","0","351",NA
"146","R_O2Q4CZUKVAi9tXH","standard","2","43","LP","19.8235243429556","169.853","NaN","173.578","3.725","NaN","0","351",NA
"147","R_O2Q4CZUKVAi9tXH","standard","2","44","LP","0.661783713916415","174.587","175.249","175.564","0.977","0.315","3","354",NA
"148","R_O2Q4CZUKVAi9tXH","standard","2","45","LP","1.25738905644119","176.572","177.834","178.126","1.554","0.292","3","357",NA
"149","R_O2Q4CZUKVAi9tXH","standard","2","46","LP","30","179.13","NaN","182.355","3.225","NaN","0","357",NA
"150","R_O2Q4CZUKVAi9tXH","standard","2","47","LP","8.51632916846187","183.357","NaN","187.161","3.804","NaN","0","357",NA
"151","R_O2Q4CZUKVAi9tXH","standard","2","48","LP","19.8235243429556","188.165","NaN","191.67","3.505","NaN","0","357",NA
"152","R_O2Q4CZUKVAi9tXH","standard","2","49","LP","2.15079707022835","192.679","194.831","195.143","2.464","0.312","3","360",NA
"153","R_O2Q4CZUKVAi9tXH","standard","2","50","LP","19.8235243429556","196.152","NaN","200.852","4.7","NaN","0","360",NA
"154","R_O2Q4CZUKVAi9tXH","standard","2","51","LP","19.8235243429556","201.856","NaN","207.416","5.56","NaN","0","360",NA
"155","R_O2Q4CZUKVAi9tXH","standard","2","52","LP","0.661783713916415","208.422","209.087","209.383","0.961","0.296","3","363",NA
"156","R_O2Q4CZUKVAi9tXH","standard","2","53","LP","19.8235243429556","210.398","NaN","216.294","5.896","NaN","0","363",NA
"157","R_O2Q4CZUKVAi9tXH","standard","2","54","LP","2.15079707022835","217.305","219.46","219.757","2.452","0.297","3","366",NA
"158","R_O2Q4CZUKVAi9tXH","standard","2","55","LP","5.5010771219302","220.77","NaN","225.376","4.606","NaN","0","366",NA
"159","R_O2Q4CZUKVAi9tXH","standard","2","56","LP","2.15079707022835","226.382","228.535","228.822","2.44","0.287","3","369",NA
"160","R_O2Q4CZUKVAi9tXH","standard","2","57","LP","3.49090909090909","229.836","233.336","233.627","3.791","0.291","3","372",NA
"161","R_O2Q4CZUKVAi9tXH","standard","2","58","LP","30","234.631","NaN","241.303","6.672","NaN","0","372",NA
"162","R_O2Q4CZUKVAi9tXH","standard","2","59","LP","2.15079707022835","242.311","244.465","244.78","2.469","0.315","3","375",NA
"163","R_O2Q4CZUKVAi9tXH","standard","2","60","LP","0.264713485566566","245.783","246.071","246.342","0.559","0.271","3","378",NA
"164","R_O2Q4CZUKVAi9tXH","standard","2","61","LP","30","247.348","NaN","256.937","9.589","NaN","0","378",NA
"165","R_O2Q4CZUKVAi9tXH","standard","2","62","LP","30","257.944","NaN","267.861","9.917","NaN","0","378",NA
"166","R_O2Q4CZUKVAi9tXH","standard","2","63","LP","2.15079707022835","268.862","271.015","271.357","2.495","0.342","3","381",NA
"167","R_O2Q4CZUKVAi9tXH","standard","2","64","LP","1.25738905644119","272.358","273.635","273.94","1.582","0.305","3","384",NA
"168","R_O2Q4CZUKVAi9tXH","standard","2","65","LP","13.0392072382594","274.943","NaN","281.31","6.367","NaN","0","384",NA
"169","R_O2Q4CZUKVAi9tXH","standard","2","66","LP","3.49090909090909","282.319","285.817","286.166","3.847","0.349","3","387",NA
"170","R_O2Q4CZUKVAi9tXH","standard","2","67","LP","5.5010771219302","287.171","292.679","293.069","5.898","0.39","3","390",NA
"171","R_O2Q4CZUKVAi9tXH","standard","2","68","LP","30","294.074","NaN","299.992","5.918","NaN","0","390",NA
"172","R_O2Q4CZUKVAi9tXH","standard","2","69","LP","5.5010771219302","301.009","306.512","306.831","5.822","0.319","3","393",NA
"173","R_O2Q4CZUKVAi9tXH","standard","2","70","LP","8.51632916846187","307.845","NaN","314.998","7.153","NaN","0","393",NA
"174","R_O2Q4CZUKVAi9tXH","standard","2","71","LP","0.264713485566566","316.008","316.29","316.701","0.693","0.411","3","396",NA
"175","R_O2Q4CZUKVAi9tXH","standard","2","72","LP","30","317.705","NaN","324.463","6.758","NaN","0","396",NA
"176","R_O2Q4CZUKVAi9tXH","standard","2","73","LP","8.51632916846187","325.506","NaN","332.403","6.897","NaN","0","396",NA
"177","R_O2Q4CZUKVAi9tXH","standard","2","74","LP","30","333.437","NaN","339.493","6.056","NaN","0","396",NA
"178","R_O2Q4CZUKVAi9tXH","standard","2","75","LP","2.15079707022835","340.499","342.657","343.04","2.541","0.383","3","399",NA
"179","R_O2Q4CZUKVAi9tXH","standard","2","76","LP","0.264713485566566","344.05","344.33","344.678","0.628","0.348","3","402",NA
"180","R_O2Q4CZUKVAi9tXH","standard","2","77","LP","3.49090909090909","345.686","349.188","349.494","3.808","0.306","3","405",NA
"181","R_O2Q4CZUKVAi9tXH","standard","2","78","LP","5.5010771219302","350.503","356.017","356.337","5.834","0.32","3","408",NA
"182","R_O2Q4CZUKVAi9tXH","standard","2","79","LP","3.49090909090909","357.351","360.862","361.19","3.839","0.328","3","411",NA
"183","R_O2Q4CZUKVAi9tXH","standard","2","80","LP","13.0392072382594","362.203","375.255","375.592","13.389","0.337","3","414",NA
"184","R_O2Q4CZUKVAi9tXH","standard","2","81","LP","19.8235243429556","376.594","NaN","391.913","15.319","NaN","0","414",NA
"185","R_O2Q4CZUKVAi9tXH","standard","2","82","LP","13.0392072382594","392.921","NaN","405.621","12.7","NaN","0","414",NA
"186","R_O2Q4CZUKVAi9tXH","standard","2","83","LP","1.25738905644119","406.625","407.89","408.192","1.567","0.302","3","417",NA
"187","R_O2Q4CZUKVAi9tXH","standard","2","84","LP","3.49090909090909","409.194","412.686","413.024","3.83","0.338","3","420",NA
"188","R_O2Q4CZUKVAi9tXH","standard","2","85","LP","30","414.027","NaN","422.349","8.322","NaN","0","420",NA
"189","R_O2Q4CZUKVAi9tXH","standard","2","86","LP","3.49090909090909","423.354","426.858","427.177","3.823","0.319","3","423",NA
"190","R_O2Q4CZUKVAi9tXH","standard","2","87","LP","0.264713485566566","428.18","428.45","428.808","0.628","0.358","3","426",NA
"191","R_O2Q4CZUKVAi9tXH","standard","2","88","LP","1.25738905644119","429.811","431.076","431.444","1.633","0.368","3","429",NA
"192","R_O2Q4CZUKVAi9tXH","standard","2","89","LP","5.5010771219302","432.458","437.962","438.283","5.825","0.321","3","432",NA
"193","R_O2Q4CZUKVAi9tXH","standard","2","90","LP","3.49090909090909","439.295","442.795","443.106","3.811","0.311","3","435",NA
"194","R_O2Q4CZUKVAi9tXH","standard","2","91","LP","1.25738905644119","444.117","445.394","445.703","1.586","0.309","3","438",NA
"195","R_O2Q4CZUKVAi9tXH","standard","2","92","LP","5.5010771219302","446.718","452.226","452.588","5.87","0.362","3","441",NA
"196","R_O2Q4CZUKVAi9tXH","standard","2","93","LP","0.661783713916415","453.599","454.267","454.566","0.967","0.299","3","444",NA
"197","R_O2Q4CZUKVAi9tXH","standard","2","94","LP","2.15079707022835","455.571","457.737","458.044","2.473","0.307","3","447",NA
"198","R_O2Q4CZUKVAi9tXH","standard","2","95","LP","5.5010771219302","459.058","464.563","464.919","5.861","0.356","3","450",NA
"199","R_O2Q4CZUKVAi9tXH","standard","2","96","LP","8.51632916846187","465.929","NaN","473.131","7.202","NaN","0","450",NA
"200","R_O2Q4CZUKVAi9tXH","standard","2","97","LP","0.264713485566566","474.139","474.409","474.723","0.584","0.314","3","453",NA
"201","R_O2Q4CZUKVAi9tXH","standard","2","98","LP","30","475.731","NaN","483.183","7.452","NaN","0","453",NA
"202","R_O2Q4CZUKVAi9tXH","standard","2","99","LP","30","484.188","NaN","490.619","6.431","NaN","0","453",NA
"203","R_O2Q4CZUKVAi9tXH","standard","2","100","LP","0.264713485566566","491.629","491.894","492.202","0.573","0.308","3","456",NA
"204","R_O2Q4CZUKVAi9tXH","standard","2","101","LP","13.0392072382594","493.218","NaN","498.537","5.319","NaN","0","456",NA
"205","R_O2Q4CZUKVAi9tXH","standard","2","102","LP","19.8235243429556","499.554","NaN","501.996","2.442","NaN","0","456",NA
"206","R_O2Q4CZUKVAi9tXH","standard","2","103","LP","0.264713485566566","503.015","503.284","503.575","0.56","0.291","3","459",NA
"207","R_O2Q4CZUKVAi9tXH","standard","2","104","LP","0.264713485566566","504.58","504.851","505.159","0.579","0.308","3","462",NA
"208","R_O2Q4CZUKVAi9tXH","standard","2","105","LP","30","506.164","NaN","507.083","0.919","NaN","0","462",NA
"209","R_O2Q4CZUKVAi9tXH","standard","2","106","LP","0.264713485566566","508.089","508.356","508.67","0.581","0.314","3","465",NA
"210","R_O2Q4CZUKVAi9tXH","standard","2","107","LP","1.25738905644119","509.677","NaN","510.409","0.732","NaN","0","465",NA
"211","R_O2Q4CZUKVAi9tXH","standard","2","108","LP","5.5010771219302","511.418","NaN","511.964","0.546","NaN","0","465",NA
"212","R_O2Q4CZUKVAi9tXH","standard","2","109","LP","0.661783713916415","512.971","NaN","513.63","0.659","NaN","0","465",NA
"213","R_O2Q4CZUKVAi9tXH","standard","2","110","LP","30","514.642","NaN","516.616","1.974","NaN","0","465",NA
"214","R_O2Q4CZUKVAi9tXH","standard","2","111","LP","8.51632916846187","517.621","NaN","519.581","1.96","NaN","0","465",NA
"215","R_O2Q4CZUKVAi9tXH","standard","2","112","LP","0.661783713916415","520.589","521.253","521.584","0.995","0.331","3","468",NA
"216","R_O2Q4CZUKVAi9tXH","standard","2","113","LP","0.264713485566566","522.589","522.86","523.148","0.559","0.288","3","471",NA
"217","R_O2Q4CZUKVAi9tXH","standard","2","114","LP","1.25738905644119","524.158","NaN","525.088","0.93","NaN","0","471",NA
"218","R_O2Q4CZUKVAi9tXH","standard","2","115","LP","13.0392072382594","526.093","NaN","528.61","2.517","NaN","0","471",NA
"219","R_O2Q4CZUKVAi9tXH","standard","2","116","LP","3.49090909090909","529.613","NaN","532.393","2.78","NaN","0","471",NA
"220","R_O2Q4CZUKVAi9tXH","standard","2","117","LP","5.5010771219302","533.399","NaN","535.807","2.408","NaN","0","471",NA
"221","R_O2Q4CZUKVAi9tXH","standard","2","118","LP","8.51632916846187","536.825","NaN","539.343","2.518","NaN","0","471",NA
"222","R_O2Q4CZUKVAi9tXH","standard","2","119","LP","5.5010771219302","540.359","NaN","542.997","2.638","NaN","0","471",NA
"223","R_O2Q4CZUKVAi9tXH","standard","2","120","LP","0.264713485566566","544.006","544.285","544.595","0.589","0.31","3","474",NA
"224","R_O2Q4CZUKVAi9tXH","standard","2","121","LP","0.661783713916415","545.598","546.274","546.562","0.964","0.288","3","477",NA
"225","R_O2Q4CZUKVAi9tXH","standard","2","122","LP","19.8235243429556","547.58","NaN","550.648","3.068","NaN","0","477",NA
"226","R_O2Q4CZUKVAi9tXH","standard","2","123","LP","0.264713485566566","551.653","551.936","552.249","0.596","0.313","3","480",NA
"227","R_O2Q4CZUKVAi9tXH","standard","2","124","LP","19.8235243429556","553.254","NaN","556.113","2.859","NaN","0","480",NA
"228","R_O2Q4CZUKVAi9tXH","standard","2","125","LP","19.8235243429556","557.117","NaN","559.733","2.616","NaN","0","480",NA
"229","R_O2Q4CZUKVAi9tXH","standard","2","126","LP","0.661783713916415","560.74","561.413","561.733","0.993","0.32","3","483",NA
"230","R_O2Q4CZUKVAi9tXH","standard","2","127","LP","2.15079707022835","562.751","564.911","565.217","2.466","0.306","3","486",NA
"231","R_O2Q4CZUKVAi9tXH","standard","2","128","LP","1.25738905644119","566.235","567.502","567.821","1.586","0.319","3","489",NA
"232","R_O2Q4CZUKVAi9tXH","standard","2","129","LP","30","568.822","NaN","572.337","3.515","NaN","0","489",NA
"233","R_O2Q4CZUKVAi9tXH","standard","2","130","LP","13.0392072382594","573.341","NaN","576.072","2.731","NaN","0","489",NA
"234","R_O2Q4CZUKVAi9tXH","standard","2","131","LP","5.5010771219302","577.077","NaN","579.404","2.327","NaN","0","489",NA
"235","R_O2Q4CZUKVAi9tXH","standard","2","132","LP","19.8235243429556","580.406","NaN","582.947","2.541","NaN","0","489",NA
"236","R_O2Q4CZUKVAi9tXH","standard","2","133","LP","0.661783713916415","583.957","584.621","584.909","0.952","0.288","3","492",NA
"237","R_O2Q4CZUKVAi9tXH","standard","2","134","LP","3.49090909090909","585.911","NaN","588.669","2.758","NaN","0","492",NA
"238","R_O2Q4CZUKVAi9tXH","standard","2","135","LP","5.5010771219302","589.679","NaN","591.748","2.069","NaN","0","492",NA
"239","R_O2Q4CZUKVAi9tXH","standard","2","136","LP","1.25738905644119","592.761","594.027","594.511","1.75","0.484","3","495",NA
"240","R_O2Q4CZUKVAi9tXH","standard","2","137","LP","8.51632916846187","595.521","NaN","596.88","1.359","NaN","0","495",NA
"241","R_O2Q4CZUKVAi9tXH","standard","2","138","LP","1.25738905644119","597.896","NaN","598.349","0.453","NaN","0","495",NA
"242","R_O2Q4CZUKVAi9tXH","standard","2","139","LP","0.661783713916415","599.356","NaN","599.741","0.385","NaN","0","495",NA
