"","subject_id","condition","n_block","n_trialIdx","f_timing_condition","n_scheduled_delay","n_trial_start_time","n_rewarded_time_fin","n_sell_time_fin","n_time_waited_fin","RT_fin","n_trial_earnings_fin","n_total_earnings_fin","keypress_times"
"1","R_OoOJuXPrQjUA2gp","standard","1","1","HP","16","0.001","16.013","NA","17.016","NA","0","0",""
"2","R_OoOJuXPrQjUA2gp","standard","1","2","HP","16","18.018","34.018","NA","17.006","NA","0","0",""
"3","R_OoOJuXPrQjUA2gp","standard","1","3","HP","20","36.03","56.039","NA","21.031","NA","0","0",""
"4","R_OoOJuXPrQjUA2gp","standard","1","4","HP","18","58.062","76.078","NA","19.02","NA","0","0",""
"5","R_OoOJuXPrQjUA2gp","standard","1","5","HP","14","78.096","92.112","NA","15.024","NA","0","0",""
"6","R_OoOJuXPrQjUA2gp","standard","1","6","HP","12","94.128","106.131","NA","13.006","NA","0","0",""
"7","R_OoOJuXPrQjUA2gp","standard","1","7","HP","12","108.136","120.143","NA","13.016","NA","0","0",""
"8","R_OoOJuXPrQjUA2gp","standard","1","8","HP","16","122.161","138.178","138.878","16.717","0.7","3","3",""
"9","R_OoOJuXPrQjUA2gp","standard","1","9","HP","8","139.879","147.894","148.737","8.858","0.843","3","6",""
"10","R_OoOJuXPrQjUA2gp","standard","1","10","HP","14","149.744","163.745","164.417","14.673","0.672","3","9",""
"11","R_OoOJuXPrQjUA2gp","standard","1","11","HP","20","165.424","185.424","186.142","20.718","0.718","3","9","13004"
"12","R_OoOJuXPrQjUA2gp","standard","1","12","HP","6","187.144","193.152","NA","7.011","NA","0","9",""
"13","R_OoOJuXPrQjUA2gp","standard","1","13","HP","2","195.16","197.169","197.86","2.7","0.691","3","12",""
"14","R_OoOJuXPrQjUA2gp","standard","1","14","HP","10","198.877","208.88","209.599","10.722","0.719","3","15",""
"15","R_OoOJuXPrQjUA2gp","standard","1","15","HP","18","210.608","228.609","229.277","18.669","0.668","3","18",""
"16","R_OoOJuXPrQjUA2gp","standard","1","16","HP","4","230.31","234.312","NA","5.008","NA","0","18",""
"17","R_OoOJuXPrQjUA2gp","standard","1","17","HP","4","236.321","240.326","241.092","4.771","0.766","3","21",""
"18","R_OoOJuXPrQjUA2gp","standard","1","18","HP","18","242.107","260.109","260.717","18.61","0.608","3","21","2400"
"19","R_OoOJuXPrQjUA2gp","standard","1","19","HP","2","261.721","263.726","NA","3.006","NA","0","21",""
"20","R_OoOJuXPrQjUA2gp","standard","1","20","HP","18","265.758","283.77","284.479","18.721","0.709","3","24",""
"21","R_OoOJuXPrQjUA2gp","standard","1","21","HP","20","285.482","305.489","306.119","20.637","0.63","3","27",""
"22","R_OoOJuXPrQjUA2gp","standard","1","22","HP","16","307.121","323.127","323.752","16.631","0.625","3","30",""
"23","R_OoOJuXPrQjUA2gp","standard","1","23","HP","16","324.754","340.773","341.401","16.647","0.628","3","33",""
"24","R_OoOJuXPrQjUA2gp","standard","1","24","HP","12","342.407","354.42","355.26","12.853","0.84","3","12","c(""923"", ""1167"", ""1384"", ""1613"", ""1823"", ""2063"", ""2293"", ""2548"")"
"25","R_OoOJuXPrQjUA2gp","standard","1","25","HP","6","356.267","362.289","362.981","6.714","0.692","3","15",""
"26","R_OoOJuXPrQjUA2gp","standard","1","26","HP","4","364.001","368.004","368.771","4.77","0.767","3","18",""
"27","R_OoOJuXPrQjUA2gp","standard","1","27","HP","8","369.778","377.787","378.572","8.794","0.785","3","21",""
"28","R_OoOJuXPrQjUA2gp","standard","1","28","HP","2","379.587","381.604","NA","3.033","NA","0","21",""
"29","R_OoOJuXPrQjUA2gp","standard","1","29","HP","16","383.622","399.621","400.31","16.688","0.689","3","24",""
"30","R_OoOJuXPrQjUA2gp","standard","1","30","HP","20","401.314","421.321","421.99","20.676","0.669","3","27",""
"31","R_OoOJuXPrQjUA2gp","standard","1","31","HP","2","422.994","425.016","425.749","2.755","0.733","3","30",""
"32","R_OoOJuXPrQjUA2gp","standard","1","32","HP","20","426.754","446.762","447.479","20.725","0.717","3","33",""
"33","R_OoOJuXPrQjUA2gp","standard","1","33","HP","14","448.481","462.491","463.181","14.7","0.69","3","36",""
"34","R_OoOJuXPrQjUA2gp","standard","1","34","HP","14","464.201","478.215","478.901","14.7","0.686","3","39",""
"35","R_OoOJuXPrQjUA2gp","standard","1","35","HP","20","479.916","499.917","500.641","20.725","0.724","3","42",""
"36","R_OoOJuXPrQjUA2gp","standard","1","36","HP","14","501.643","515.65","516.59","14.947","0.94","3","45",""
"37","R_OoOJuXPrQjUA2gp","standard","1","37","HP","16","517.594","533.636","534.32","16.726","0.684","3","48",""
"38","R_OoOJuXPrQjUA2gp","standard","1","38","HP","16","535.323","551.323","552.219","16.896","0.896","3","51",""
"39","R_OoOJuXPrQjUA2gp","standard","1","39","HP","18","553.222","571.227","571.939","18.717","0.712","3","51","2718"
"40","R_OoOJuXPrQjUA2gp","standard","1","40","HP","12","572.947","584.956","585.73","12.783","0.774","3","54",""
"41","R_OoOJuXPrQjUA2gp","standard","1","41","HP","18","586.731","604.731","605.481","18.75","0.75","3","57",""
"42","R_OoOJuXPrQjUA2gp","standard","1","42","HP","4","606.485","610.49","611.324","4.839","0.834","3","60",""
"43","R_OoOJuXPrQjUA2gp","standard","1","43","HP","20","612.331","632.339","633.049","20.718","0.71","3","63",""
"44","R_OoOJuXPrQjUA2gp","standard","1","44","HP","14","634.05","648.059","649.004","14.954","0.945","3","66",""
"45","R_OoOJuXPrQjUA2gp","standard","1","45","HP","14","650.01","664.019","664.891","14.881","0.872","3","69",""
"46","R_OoOJuXPrQjUA2gp","standard","1","46","HP","12","665.94","677.955","678.621","12.681","0.666","3","72",""
"47","R_OoOJuXPrQjUA2gp","standard","1","47","HP","18","679.646","697.651","698.4","18.754","0.749","3","75",""
"48","R_OoOJuXPrQjUA2gp","standard","1","48","HP","6","699.408","705.41","706.194","6.786","0.784","3","78",""
"49","R_OoOJuXPrQjUA2gp","standard","1","49","HP","4","707.208","711.222","NA","5.016","NA","0","78",""
"50","R_OoOJuXPrQjUA2gp","standard","1","50","HP","14","713.228","727.235","728.02","14.792","0.785","3","81",""
"51","R_OoOJuXPrQjUA2gp","standard","1","51","HP","16","729.02","745.022","745.74","16.72","0.718","3","84",""
"52","R_OoOJuXPrQjUA2gp","standard","1","52","HP","12","746.749","758.755","759.532","12.783","0.777","3","87",""
"53","R_OoOJuXPrQjUA2gp","standard","1","53","HP","20","760.536","780.54","781.306","20.77","0.766","3","90",""
"54","R_OoOJuXPrQjUA2gp","standard","1","54","HP","18","782.324","800.332","801.089","18.765","0.757","3","93",""
"55","R_OoOJuXPrQjUA2gp","standard","1","55","HP","4","802.12","806.132","806.957","4.837","0.825","3","96",""
"56","R_OoOJuXPrQjUA2gp","standard","1","56","HP","14","807.963","821.97","822.761","14.798","0.791","3","99",""
"57","R_OoOJuXPrQjUA2gp","standard","1","57","HP","4","823.762","827.763","828.45","4.688","0.687","3","102",""
"58","R_OoOJuXPrQjUA2gp","standard","1","58","HP","6","829.455","835.459","836.169","6.714","0.71","3","105",""
"59","R_OoOJuXPrQjUA2gp","standard","1","59","HP","16","837.186","853.202","853.861","16.675","0.659","3","108",""
"60","R_OoOJuXPrQjUA2gp","standard","1","60","HP","8","854.866","862.867","863.548","8.682","0.681","3","111",""
"61","R_OoOJuXPrQjUA2gp","standard","1","61","HP","10","864.555","874.569","875.332","10.777","0.763","3","114",""
"62","R_OoOJuXPrQjUA2gp","standard","1","62","HP","20","876.338","896.34","897.062","20.724","0.722","3","117",""
"63","R_OoOJuXPrQjUA2gp","standard","2","1","LP","13.0392072382594","0.001","NaN","2.981","2.98","NaN","0","117",NA
"64","R_OoOJuXPrQjUA2gp","standard","2","2","LP","2.15079707022835","4.003","NaN","5.692","1.689","NaN","0","117",NA
"65","R_OoOJuXPrQjUA2gp","standard","2","3","LP","1.25738905644119","6.704","7.964",NA,"2.269",NA,"0","117",NA
"66","R_OoOJuXPrQjUA2gp","standard","2","4","LP","1.25738905644119","9.987","11.252","11.921","1.934","0.669","3","120",NA
"67","R_OoOJuXPrQjUA2gp","standard","2","5","LP","8.51632916846187","12.925","21.445","22.161","9.236","0.716","3","123",NA
"68","R_OoOJuXPrQjUA2gp","standard","2","6","LP","0.264713485566566","23.169","23.437",NA,"1.268",NA,"0","123",NA
"69","R_OoOJuXPrQjUA2gp","standard","2","7","LP","0.661783713916415","25.439","26.101","26.869","1.43","0.768","3","126",NA
"70","R_OoOJuXPrQjUA2gp","standard","2","8","LP","3.49090909090909","27.877","31.373","32.09","4.213","0.717","3","129",NA
"71","R_OoOJuXPrQjUA2gp","standard","2","9","LP","13.0392072382594","33.092","46.133","46.83","13.738","0.697","3","132",NA
"72","R_OoOJuXPrQjUA2gp","standard","2","10","LP","5.5010771219302","47.837","53.376","54.145","6.308","0.769","3","135",NA
"73","R_OoOJuXPrQjUA2gp","standard","2","11","LP","3.49090909090909","55.149","58.644","59.386","4.237","0.742","3","138",NA
"74","R_OoOJuXPrQjUA2gp","standard","2","12","LP","0.264713485566566","60.406","60.686",NA,"1.287",NA,"0","138",NA
"75","R_OoOJuXPrQjUA2gp","standard","2","13","LP","5.5010771219302","62.704","68.216","68.968","6.264","0.752","3","141",NA
"76","R_OoOJuXPrQjUA2gp","standard","2","14","LP","1.25738905644119","69.972","71.236","71.99","2.018","0.754","3","144",NA
"77","R_OoOJuXPrQjUA2gp","standard","2","15","LP","1.25738905644119","73","74.26","75.119","2.119","0.859","3","147",NA
"78","R_OoOJuXPrQjUA2gp","standard","2","16","LP","13.0392072382594","76.124","89.166","89.861","13.737","0.695","3","150",NA
"79","R_OoOJuXPrQjUA2gp","standard","2","17","LP","0.264713485566566","90.868","91.141",NA,"1.281",NA,"0","150",NA
"80","R_OoOJuXPrQjUA2gp","standard","2","18","LP","1.25738905644119","93.166","94.429","95.1","1.934","0.671","3","153",NA
"81","R_OoOJuXPrQjUA2gp","standard","2","19","LP","1.25738905644119","96.1","97.365","98.081","1.981","0.716","3","156",NA
"82","R_OoOJuXPrQjUA2gp","standard","2","20","LP","2.15079707022835","99.084","101.235","101.941","2.857","0.706","3","159",NA
"83","R_OoOJuXPrQjUA2gp","standard","2","21","LP","8.51632916846187","102.955","111.476","112.166","9.211","0.69","3","162",NA
"84","R_OoOJuXPrQjUA2gp","standard","2","22","LP","1.25738905644119","113.182","114.444","115.197","2.015","0.753","3","165",NA
"85","R_OoOJuXPrQjUA2gp","standard","2","23","LP","0.661783713916415","116.215","116.891","117.551","1.336","0.66","3","168",NA
"86","R_OoOJuXPrQjUA2gp","standard","2","24","LP","1.25738905644119","118.567","119.829","120.481","1.914","0.652","3","171",NA
"87","R_OoOJuXPrQjUA2gp","standard","2","25","LP","0.661783713916415","121.497","122.167",NA,"1.686",NA,"0","171",NA
"88","R_OoOJuXPrQjUA2gp","standard","2","26","LP","0.661783713916415","124.189","124.853","125.59","1.401","0.737","3","174",NA
"89","R_OoOJuXPrQjUA2gp","standard","2","27","LP","8.51632916846187","126.598","135.115","135.768","9.17","0.653","3","177",NA
"90","R_OoOJuXPrQjUA2gp","standard","2","28","LP","0.264713485566566","136.773","137.037","137.783","1.01","0.746","3","180",NA
"91","R_OoOJuXPrQjUA2gp","standard","2","29","LP","3.49090909090909","138.799","142.299","142.98","4.181","0.681","3","183",NA
"92","R_OoOJuXPrQjUA2gp","standard","2","30","LP","5.5010771219302","143.981","149.497","150.162","6.181","0.665","3","186",NA
"93","R_OoOJuXPrQjUA2gp","standard","2","31","LP","2.15079707022835","151.165","153.317","153.972","2.807","0.655","3","189",NA
"94","R_OoOJuXPrQjUA2gp","standard","2","32","LP","8.51632916846187","154.981","163.515","164.221","9.24","0.706","3","192",NA
"95","R_OoOJuXPrQjUA2gp","standard","2","33","LP","5.5010771219302","165.23","170.733","171.472","6.242","0.739","3","195",NA
"96","R_OoOJuXPrQjUA2gp","standard","2","34","LP","0.661783713916415","172.478","173.141","173.948","1.47","0.807","3","198",NA
"97","R_OoOJuXPrQjUA2gp","standard","2","35","LP","19.8235243429556","174.951","194.782","195.463","20.512","0.681","3","201",NA
"98","R_OoOJuXPrQjUA2gp","standard","2","36","LP","1.25738905644119","196.479","197.741","198.581","2.102","0.84","3","204",NA
"99","R_OoOJuXPrQjUA2gp","standard","2","37","LP","2.15079707022835","199.596","201.75","202.531","2.935","0.781","3","207",NA
"100","R_OoOJuXPrQjUA2gp","standard","2","38","LP","19.8235243429556","203.532","223.358","224.083","20.551","0.725","3","210",NA
"101","R_OoOJuXPrQjUA2gp","standard","2","39","LP","30","225.095","255.111","255.828","30.733","0.717","3","213",NA
"102","R_OoOJuXPrQjUA2gp","standard","2","40","LP","13.0392072382594","256.829","269.877","270.683","13.854","0.806","3","216",NA
"103","R_OoOJuXPrQjUA2gp","standard","2","41","LP","19.8235243429556","271.692","291.517","292.254","20.562","0.737","3","219",NA
"104","R_OoOJuXPrQjUA2gp","standard","2","42","LP","3.49090909090909","293.276","296.775","297.577","4.301","0.802","3","222",NA
"105","R_OoOJuXPrQjUA2gp","standard","2","43","LP","1.25738905644119","298.59","299.852","300.608","2.018","0.756","3","225",NA
"106","R_OoOJuXPrQjUA2gp","standard","2","44","LP","30","301.608","331.609","332.24","30.632","0.631","3","228",NA
"107","R_OoOJuXPrQjUA2gp","standard","2","45","LP","0.661783713916415","333.257","333.925","334.73","1.473","0.805","3","231",NA
"108","R_OoOJuXPrQjUA2gp","standard","2","46","LP","5.5010771219302","335.77","341.29","342.17","6.4","0.88","3","234",NA
"109","R_OoOJuXPrQjUA2gp","standard","2","47","LP","5.5010771219302","343.174","348.689","349.557","6.383","0.868","3","237",NA
"110","R_OoOJuXPrQjUA2gp","standard","2","48","LP","8.51632916846187","350.573","359.093","359.852","9.279","0.759","3","240",NA
"111","R_OoOJuXPrQjUA2gp","standard","2","49","LP","0.264713485566566","360.853","361.124","361.912","1.059","0.788","3","243",NA
"112","R_OoOJuXPrQjUA2gp","standard","2","50","LP","13.0392072382594","362.916","375.957","376.663","13.747","0.706","3","246",NA
"113","R_OoOJuXPrQjUA2gp","standard","2","51","LP","2.15079707022835","377.67","379.837","380.609","2.939","0.772","3","249",NA
"114","R_OoOJuXPrQjUA2gp","standard","2","52","LP","13.0392072382594","381.614","394.654","395.353","13.739","0.699","3","252",NA
"115","R_OoOJuXPrQjUA2gp","standard","2","53","LP","0.264713485566566","396.358","396.625",NA,"1.271",NA,"0","252",NA
"116","R_OoOJuXPrQjUA2gp","standard","2","54","LP","0.661783713916415","398.63","399.298","399.982","1.352","0.684","3","255",NA
"117","R_OoOJuXPrQjUA2gp","standard","2","55","LP","2.15079707022835","400.989","403.141","403.862","2.873","0.721","3","258",NA
"118","R_OoOJuXPrQjUA2gp","standard","2","56","LP","8.51632916846187","404.872","413.403","414.09","9.218","0.687","3","261",NA
"119","R_OoOJuXPrQjUA2gp","standard","2","57","LP","5.5010771219302","415.111","420.612","421.511","6.4","0.899","3","264",NA
"120","R_OoOJuXPrQjUA2gp","standard","2","58","LP","3.49090909090909","422.517","426.023","426.885","4.368","0.862","3","267",NA
"121","R_OoOJuXPrQjUA2gp","standard","2","59","LP","30","427.891","457.902","458.641","30.75","0.739","3","270",NA
"122","R_OoOJuXPrQjUA2gp","standard","2","60","LP","1.25738905644119","459.645","460.908",NA,"2.263",NA,"0","270",NA
"123","R_OoOJuXPrQjUA2gp","standard","2","61","LP","5.5010771219302","462.908","468.418","469.168","6.26","0.75","3","273",NA
"124","R_OoOJuXPrQjUA2gp","standard","2","62","LP","19.8235243429556","470.185","490.016","490.77","20.585","0.754","3","276",NA
"125","R_OoOJuXPrQjUA2gp","standard","2","63","LP","0.264713485566566","491.786","492.054","492.854","1.068","0.8","3","279",NA
"126","R_OoOJuXPrQjUA2gp","standard","2","64","LP","30","493.862","523.885","524.734","30.872","0.849","3","282",NA
"127","R_OoOJuXPrQjUA2gp","standard","2","65","LP","19.8235243429556","525.734","545.561","546.423","20.689","0.862","3","285",NA
"128","R_OoOJuXPrQjUA2gp","standard","2","66","LP","0.661783713916415","547.429","548.097",NA,"1.685",NA,"0","285",NA
"129","R_OoOJuXPrQjUA2gp","standard","2","67","LP","5.5010771219302","550.117","555.62","556.297","6.18","0.677","3","288",NA
"130","R_OoOJuXPrQjUA2gp","standard","2","68","LP","30","557.313","587.319","587.941","30.628","0.622","3","291",NA
"131","R_OoOJuXPrQjUA2gp","standard","2","69","LP","2.15079707022835","588.948","591.113","591.899","2.951","0.786","3","294",NA
"132","R_OoOJuXPrQjUA2gp","standard","2","70","LP","0.661783713916415","592.923","593.596","594.44","1.517","0.844","3","297",NA
"133","R_OoOJuXPrQjUA2gp","standard","2","71","LP","1.25738905644119","595.444","596.713","597.38","1.936","0.667","3","300",NA
