"","subject_id","condition","n_block","n_trialIdx","f_timing_condition","n_scheduled_delay","n_trial_start_time","n_rewarded_time_fin","n_sell_time_fin","n_time_waited_fin","RT_fin","n_trial_earnings_fin","n_total_earnings_fin","keypress_times"
"1","R_OOkhWwLBEeAms7f","standard","1","1","LP","19.8235243429556","0.004","19.83","20.469","20.465","0.639","3","3",""
"2","R_OOkhWwLBEeAms7f","standard","1","2","LP","0.661783713916415","21.477","22.141","NA","1.673","NA","0","3",""
"3","R_OOkhWwLBEeAms7f","standard","1","3","LP","2.15079707022835","24.158","26.311","26.999","2.841","0.688","3","3","149"
"4","R_OOkhWwLBEeAms7f","standard","1","4","LP","2.15079707022835","28.021","30.174","30.794","2.773","0.62","3","6",""
"5","R_OOkhWwLBEeAms7f","standard","1","5","LP","2.15079707022835","31.797","33.949","NA","3.153","NA","0","6",""
"6","R_OOkhWwLBEeAms7f","standard","1","6","LP","2.15079707022835","35.958","38.112","38.707","2.749","0.595","3","9",""
"7","R_OOkhWwLBEeAms7f","standard","1","7","LP","1.25738905644119","39.711","40.974","41.655","1.944","0.681","3","12",""
"8","R_OOkhWwLBEeAms7f","standard","1","8","LP","3.49090909090909","42.662","46.159","46.749","4.087","0.59","3","15",""
"9","R_OOkhWwLBEeAms7f","standard","1","9","LP","0.661783713916415","47.758","48.421","49.182","1.424","0.761","3","18",""
"10","R_OOkhWwLBEeAms7f","standard","1","10","LP","19.8235243429556","50.19","70.015","70.635","20.445","0.62","3","15","c(""18040"", ""18072"")"
"11","R_OOkhWwLBEeAms7f","standard","1","11","LP","3.49090909090909","71.638","75.133","75.786","4.148","0.653","3","18",""
"12","R_OOkhWwLBEeAms7f","standard","1","12","LP","8.51632916846187","76.797","85.316","85.928","9.131","0.612","3","21",""
"13","R_OOkhWwLBEeAms7f","standard","1","13","LP","8.51632916846187","86.932","95.454","NA","9.531","NA","0","21",""
"14","R_OOkhWwLBEeAms7f","standard","1","14","LP","30","97.47","127.487","128.065","30.595","0.578","3","24",""
"15","R_OOkhWwLBEeAms7f","standard","1","15","LP","2.15079707022835","129.08","131.238","132.153","3.073","0.915","3","27",""
"16","R_OOkhWwLBEeAms7f","standard","1","16","LP","19.8235243429556","133.157","152.99","NA","20.845","NA","0","27",""
"17","R_OOkhWwLBEeAms7f","standard","1","17","LP","8.51632916846187","155.007","163.526","164.064","9.057","0.538","3","30",""
"18","R_OOkhWwLBEeAms7f","standard","1","18","LP","13.0392072382594","165.078","178.126","178.705","13.627","0.579","3","33",""
"19","R_OOkhWwLBEeAms7f","standard","1","19","LP","3.49090909090909","179.714","183.206","183.926","4.212","0.72","3","36",""
"20","R_OOkhWwLBEeAms7f","standard","1","20","LP","19.8235243429556","184.927","204.751","205.348","20.421","0.597","3","39",""
"21","R_OOkhWwLBEeAms7f","standard","1","21","LP","30","206.35","236.443","237.38","31.03","0.937","3","39","22871"
"22","R_OOkhWwLBEeAms7f","standard","1","22","LP","0.264713485566566","238.382","238.654","239.492","1.11","0.838","3","42",""
"23","R_OOkhWwLBEeAms7f","standard","1","23","LP","13.0392072382594","240.493","253.533","NA","14.05","NA","0","42",""
"24","R_OOkhWwLBEeAms7f","standard","1","24","LP","19.8235243429556","255.55","275.391","275.955","20.405","0.564","3","45",""
"25","R_OOkhWwLBEeAms7f","standard","1","25","LP","2.15079707022835","276.958","279.112","279.788","2.83","0.676","3","48",""
"26","R_OOkhWwLBEeAms7f","standard","1","26","LP","3.49090909090909","280.794","284.293","284.948","4.154","0.655","3","51",""
"27","R_OOkhWwLBEeAms7f","standard","1","27","LP","1.25738905644119","285.955","287.221","287.898","1.943","0.677","3","54",""
"28","R_OOkhWwLBEeAms7f","standard","1","28","LP","3.49090909090909","288.905","292.405","NA","4.502","NA","0","54",""
"29","R_OOkhWwLBEeAms7f","standard","1","29","LP","3.49090909090909","294.409","297.908","298.459","4.05","0.551","3","54","2283"
"30","R_OOkhWwLBEeAms7f","standard","1","30","LP","8.51632916846187","299.461","307.982","308.625","9.164","0.643","3","54","564"
"31","R_OOkhWwLBEeAms7f","standard","1","31","LP","8.51632916846187","309.629","318.149","318.804","9.175","0.655","3","57",""
"32","R_OOkhWwLBEeAms7f","standard","1","32","LP","30","319.821","349.822","350.369","30.548","0.547","3","60",""
"33","R_OOkhWwLBEeAms7f","standard","1","33","LP","1.25738905644119","351.387","352.654","NA","2.278","NA","0","60",""
"34","R_OOkhWwLBEeAms7f","standard","1","34","LP","5.5010771219302","354.669","360.172","360.799","6.13","0.627","3","63",""
"35","R_OOkhWwLBEeAms7f","standard","1","35","LP","3.49090909090909","361.815","365.309","365.458","3.643","0.149","3","60","c(""179"", ""3270"")"
"36","R_OOkhWwLBEeAms7f","standard","1","36","LP","5.5010771219302","366.469","371.981","NA","6.527","NA","0","21","c(""284"", ""578"", ""969"", ""1225"", ""1525"", ""1773"", ""2024"", ""2260"", ""2487"", ""2756"", ""2990"", ""3221"", ""3460"")"
"37","R_OOkhWwLBEeAms7f","standard","1","37","LP","2.15079707022835","373.99","376.15","NA","3.169","NA","0","21",""
"38","R_OOkhWwLBEeAms7f","standard","1","38","LP","0.661783713916415","378.165","378.83","NA","1.683","NA","0","21",""
"39","R_OOkhWwLBEeAms7f","standard","1","39","LP","3.49090909090909","380.854","384.357","385.186","4.332","0.829","3","24",""
"40","R_OOkhWwLBEeAms7f","standard","1","40","LP","1.25738905644119","386.202","387.461","NA","2.261","NA","0","24",""
"41","R_OOkhWwLBEeAms7f","standard","1","41","LP","3.49090909090909","389.485","392.981","393.925","4.44","0.944","3","27",""
"42","R_OOkhWwLBEeAms7f","standard","1","42","LP","30","394.934","424.94","425.522","30.588","0.582","3","30",""
"43","R_OOkhWwLBEeAms7f","standard","1","43","LP","30","426.525","456.532","457.136","30.611","0.604","3","33",""
"44","R_OOkhWwLBEeAms7f","standard","1","44","LP","0.264713485566566","458.141","458.413","NA","1.276","NA","0","33",""
"45","R_OOkhWwLBEeAms7f","standard","1","45","LP","1.25738905644119","460.417","461.684","462.65","2.233","0.966","3","36",""
"46","R_OOkhWwLBEeAms7f","standard","1","46","LP","30","463.654","493.663","494.534","30.88","0.871","3","30","c(""1170"", ""1220"", ""1300"")"
"47","R_OOkhWwLBEeAms7f","standard","1","47","LP","0.264713485566566","495.541","495.807","496.489","0.948","0.682","3","33",""
"48","R_OOkhWwLBEeAms7f","standard","1","48","LP","2.15079707022835","497.494","499.645","NA","3.153","NA","0","33",""
"49","R_OOkhWwLBEeAms7f","standard","1","49","LP","8.51632916846187","501.654","510.173","510.873","9.219","0.7","3","36",""
"50","R_OOkhWwLBEeAms7f","standard","1","50","LP","13.0392072382594","511.877","524.918","525.574","13.697","0.656","3","36","1377"
"51","R_OOkhWwLBEeAms7f","standard","1","51","LP","19.8235243429556","526.595","546.422","547.055","20.46","0.633","3","39",""
"52","R_OOkhWwLBEeAms7f","standard","1","52","LP","3.49090909090909","548.063","551.558","NA","4.505","NA","0","39",""
"53","R_OOkhWwLBEeAms7f","standard","1","53","LP","8.51632916846187","553.574","562.094","562.863","9.289","0.769","3","42",""
"54","R_OOkhWwLBEeAms7f","standard","1","54","LP","30","563.87","593.878","594.415","30.545","0.537","3","45",""
"55","R_OOkhWwLBEeAms7f","standard","1","55","LP","3.49090909090909","595.421","598.912","599.603","4.182","0.691","3","48",""
"56","R_OOkhWwLBEeAms7f","standard","1","56","LP","13.0392072382594","600.607","613.653","NA","14.047","NA","0","48",""
"57","R_OOkhWwLBEeAms7f","standard","1","57","LP","5.5010771219302","615.663","621.166","NA","6.512","NA","0","48",""
"58","R_OOkhWwLBEeAms7f","standard","1","58","LP","2.15079707022835","623.184","625.347","626.003","2.819","0.656","3","51",""
"59","R_OOkhWwLBEeAms7f","standard","1","59","LP","30","627.008","657.015","657.523","30.515","0.508","3","54",""
"60","R_OOkhWwLBEeAms7f","standard","1","60","LP","1.25738905644119","658.527","659.789","NA","2.263","NA","0","54",""
"61","R_OOkhWwLBEeAms7f","standard","1","61","LP","8.51632916846187","661.798","670.317","NA","9.525","NA","0","54",""
"62","R_OOkhWwLBEeAms7f","standard","1","62","LP","2.15079707022835","672.326","674.491","NA","3.182","NA","0","54",""
"63","R_OOkhWwLBEeAms7f","standard","1","63","LP","19.8235243429556","676.513","696.341","696.947","20.434","0.606","3","57",""
"64","R_OOkhWwLBEeAms7f","standard","1","64","LP","1.25738905644119","697.949","699.208","699.926","1.977","0.718","3","60",""
"65","R_OOkhWwLBEeAms7f","standard","1","65","LP","0.264713485566566","700.933","701.206","701.902","0.969","0.696","3","63",""
"66","R_OOkhWwLBEeAms7f","standard","1","66","LP","5.5010771219302","702.91","708.413","709.078","6.168","0.665","3","66",""
"67","R_OOkhWwLBEeAms7f","standard","1","67","LP","5.5010771219302","710.088","715.597","NA","6.512","NA","0","66",""
"68","R_OOkhWwLBEeAms7f","standard","1","68","LP","2.15079707022835","717.606","719.757","NA","3.16","NA","0","66",""
"69","R_OOkhWwLBEeAms7f","standard","1","69","LP","2.15079707022835","721.778","723.933","NA","3.162","NA","0","66",""
"70","R_OOkhWwLBEeAms7f","standard","1","70","LP","19.8235243429556","725.942","745.777","746.377","20.435","0.6","3","66","1093"
"71","R_OOkhWwLBEeAms7f","standard","1","71","LP","3.49090909090909","747.383","750.877","NA","4.497","NA","0","66",""
"72","R_OOkhWwLBEeAms7f","standard","1","72","LP","19.8235243429556","752.887","772.719","NA","20.84","NA","0","63","1032"
"73","R_OOkhWwLBEeAms7f","standard","1","73","LP","5.5010771219302","774.733","780.238","780.872","6.139","0.634","3","63","2693"
"74","R_OOkhWwLBEeAms7f","standard","1","74","LP","19.8235243429556","781.876","801.709","802.564","20.688","0.855","3","63","19460"
"75","R_OOkhWwLBEeAms7f","standard","1","75","LP","1.25738905644119","803.585","804.845","805.664","2.079","0.819","3","66",""
"76","R_OOkhWwLBEeAms7f","standard","1","76","LP","8.51632916846187","806.668","815.189","815.795","9.127","0.606","3","69",""
"77","R_OOkhWwLBEeAms7f","standard","1","77","LP","0.661783713916415","816.8","817.469","818.148","1.348","0.679","3","72",""
"78","R_OOkhWwLBEeAms7f","standard","1","78","LP","30","819.148","849.157","849.859","30.711","0.702","3","75",""
"79","R_OOkhWwLBEeAms7f","standard","1","79","LP","13.0392072382594","850.862","863.91","NA","14.05","NA","0","75",""
"80","R_OOkhWwLBEeAms7f","standard","1","80","LP","2.15079707022835","865.917","868.07","868.726","2.809","0.656","3","78",""
"81","R_OOkhWwLBEeAms7f","standard","1","81","LP","2.15079707022835","869.733","871.899","872.577","2.844","0.678","3","81",""
"82","R_OOkhWwLBEeAms7f","standard","1","82","LP","1.25738905644119","873.582","874.845","875.507","1.925","0.662","3","84",""
"83","R_OOkhWwLBEeAms7f","standard","1","83","LP","0.661783713916415","876.511","877.173","878.106","1.595","0.933","3","87",""
"84","R_OOkhWwLBEeAms7f","standard","1","84","LP","0.264713485566566","879.107","879.373","880.222","1.115","0.849","3","90",""
"85","R_OOkhWwLBEeAms7f","standard","1","85","LP","2.15079707022835","881.229","883.381","884.006","2.777","0.625","3","93",""
"86","R_OOkhWwLBEeAms7f","standard","1","86","LP","1.25738905644119","885.007","886.283","886.847","1.84","0.564","3","96",""
"87","R_OOkhWwLBEeAms7f","standard","2","1","LP","30","0","30.002","30.613","30.613","0.611","3","99",NA
"88","R_OOkhWwLBEeAms7f","standard","2","2","LP","0.661783713916415","31.617","32.281","33.012","1.395","0.731","3","102",NA
"89","R_OOkhWwLBEeAms7f","standard","2","3","LP","3.49090909090909","34.016","37.517","38.215","4.199","0.698","3","105",NA
"90","R_OOkhWwLBEeAms7f","standard","2","4","LP","2.15079707022835","39.217","41.368","42.128","2.911","0.76","3","108",NA
"91","R_OOkhWwLBEeAms7f","standard","2","5","LP","0.264713485566566","43.137","43.411",NA,"1.28",NA,"0","108",NA
"92","R_OOkhWwLBEeAms7f","standard","2","6","LP","0.661783713916415","45.426","46.098","46.375","0.949","0.277","3","111",NA
"93","R_OOkhWwLBEeAms7f","standard","2","7","LP","2.15079707022835","47.405","49.576","50.177","2.772","0.601","3","114",NA
"94","R_OOkhWwLBEeAms7f","standard","2","8","LP","8.51632916846187","51.184","59.707","60.519","9.335","0.812","3","117",NA
"95","R_OOkhWwLBEeAms7f","standard","2","9","LP","1.25738905644119","61.521","62.785","63.795","2.274","1.01","3","120",NA
"96","R_OOkhWwLBEeAms7f","standard","2","10","LP","1.25738905644119","64.801","66.065",NA,"2.273",NA,"0","120",NA
"97","R_OOkhWwLBEeAms7f","standard","2","11","LP","3.49090909090909","68.075","NaN","68.248","0.173","NaN","0","120",NA
"98","R_OOkhWwLBEeAms7f","standard","2","12","LP","1.25738905644119","69.256","70.521","71.239","1.983","0.718","3","123",NA
"99","R_OOkhWwLBEeAms7f","standard","2","13","LP","8.51632916846187","72.265","80.787","81.549","9.284","0.762","3","126",NA
"100","R_OOkhWwLBEeAms7f","standard","2","14","LP","13.0392072382594","82.553","95.601","96.254","13.701","0.653","3","129",NA
"101","R_OOkhWwLBEeAms7f","standard","2","15","LP","5.5010771219302","97.257","102.761","103.401","6.144","0.64","3","132",NA
"102","R_OOkhWwLBEeAms7f","standard","2","16","LP","0.661783713916415","104.476","105.14","106.021","1.545","0.881","3","135",NA
"103","R_OOkhWwLBEeAms7f","standard","2","17","LP","13.0392072382594","107.023","120.065","120.961","13.938","0.896","3","138",NA
"104","R_OOkhWwLBEeAms7f","standard","2","18","LP","1.25738905644119","121.969","123.226","123.941","1.972","0.715","3","141",NA
"105","R_OOkhWwLBEeAms7f","standard","2","19","LP","0.661783713916415","124.945","125.606","126.279","1.334","0.673","3","144",NA
"106","R_OOkhWwLBEeAms7f","standard","2","20","LP","5.5010771219302","127.281","132.793","133.351","6.07","0.558","3","147",NA
"107","R_OOkhWwLBEeAms7f","standard","2","21","LP","1.25738905644119","134.352","135.617","136.287","1.935","0.67","3","150",NA
"108","R_OOkhWwLBEeAms7f","standard","2","22","LP","13.0392072382594","137.312","150.361","150.985","13.673","0.624","3","153",NA
"109","R_OOkhWwLBEeAms7f","standard","2","23","LP","0.264713485566566","151.992","152.265","153.106","1.114","0.841","3","156",NA
"110","R_OOkhWwLBEeAms7f","standard","2","24","LP","3.49090909090909","154.113","157.605","158.228","4.115","0.623","3","159",NA
"111","R_OOkhWwLBEeAms7f","standard","2","25","LP","2.15079707022835","159.232","161.386","162.008","2.776","0.622","3","162",NA
"112","R_OOkhWwLBEeAms7f","standard","2","26","LP","19.8235243429556","163.017","182.841","183.5","20.483","0.659","3","165",NA
"113","R_OOkhWwLBEeAms7f","standard","2","27","LP","5.5010771219302","184.505","190.008","190.659","6.154","0.651","3","168",NA
"114","R_OOkhWwLBEeAms7f","standard","2","28","LP","1.25738905644119","191.664","192.928","193.538","1.874","0.61","3","171",NA
"115","R_OOkhWwLBEeAms7f","standard","2","29","LP","3.49090909090909","194.545","198.041","198.629","4.084","0.588","3","174",NA
"116","R_OOkhWwLBEeAms7f","standard","2","30","LP","8.51632916846187","199.632","NaN","202.168","2.536","NaN","0","174",NA
"117","R_OOkhWwLBEeAms7f","standard","2","31","LP","13.0392072382594","203.176","216.217","216.868","13.692","0.651","3","177",NA
"118","R_OOkhWwLBEeAms7f","standard","2","32","LP","0.264713485566566","217.873","218.14","218.916","1.043","0.776","3","180",NA
"119","R_OOkhWwLBEeAms7f","standard","2","33","LP","3.49090909090909","219.92","223.416","224.116","4.196","0.7","3","183",NA
"120","R_OOkhWwLBEeAms7f","standard","2","34","LP","30","225.119","255.12","255.809","30.69","0.689","3","186",NA
"121","R_OOkhWwLBEeAms7f","standard","2","35","LP","8.51632916846187","256.815","265.332","266.202","9.387","0.87","3","189",NA
"122","R_OOkhWwLBEeAms7f","standard","2","36","LP","13.0392072382594","267.214","280.257",NA,"14.053",NA,"0","189",NA
"123","R_OOkhWwLBEeAms7f","standard","2","37","LP","30","282.272","312.271","312.849","30.577","0.578","3","192",NA
"124","R_OOkhWwLBEeAms7f","standard","2","38","LP","1.25738905644119","313.856","315.114","316.051","2.195","0.937","3","195",NA
"125","R_OOkhWwLBEeAms7f","standard","2","39","LP","0.661783713916415","317.056","317.719",NA,"1.664",NA,"0","195",NA
"126","R_OOkhWwLBEeAms7f","standard","2","40","LP","19.8235243429556","319.727","339.551","340.321","20.594","0.77","3","198",NA
"127","R_OOkhWwLBEeAms7f","standard","2","41","LP","13.0392072382594","341.328","354.375","355.349","14.021","0.974","3","201",NA
"128","R_OOkhWwLBEeAms7f","standard","2","42","LP","0.661783713916415","356.351","357.016",NA,"1.672",NA,"0","201",NA
"129","R_OOkhWwLBEeAms7f","standard","2","43","LP","8.51632916846187","359.024","367.54","368.228","9.204","0.688","3","204",NA
"130","R_OOkhWwLBEeAms7f","standard","2","44","LP","3.49090909090909","369.232","372.729",NA,"4.504",NA,"0","204",NA
"131","R_OOkhWwLBEeAms7f","standard","2","45","LP","1.25738905644119","374.744","376.003","376.705","1.961","0.702","3","207",NA
"132","R_OOkhWwLBEeAms7f","standard","2","46","LP","19.8235243429556","377.706","397.535","398.451","20.745","0.916","3","210",NA
"133","R_OOkhWwLBEeAms7f","standard","2","47","LP","2.15079707022835","399.455","401.608",NA,"3.157",NA,"0","210",NA
"134","R_OOkhWwLBEeAms7f","standard","2","48","LP","13.0392072382594","403.615","NaN","412.37","8.755","NaN","0","210",NA
"135","R_OOkhWwLBEeAms7f","standard","2","49","LP","1.25738905644119","413.375","414.64","415.41","2.035","0.77","3","213",NA
"136","R_OOkhWwLBEeAms7f","standard","2","50","LP","13.0392072382594","416.411","429.457",NA,"14.05",NA,"0","213",NA
"137","R_OOkhWwLBEeAms7f","standard","2","51","LP","8.51632916846187","431.465","439.99","440.712","9.247","0.722","3","216",NA
"138","R_OOkhWwLBEeAms7f","standard","2","52","LP","1.25738905644119","441.712","442.977","443.65","1.938","0.673","3","219",NA
"139","R_OOkhWwLBEeAms7f","standard","2","53","LP","0.661783713916415","444.66","445.324",NA,"1.665",NA,"0","219",NA
"140","R_OOkhWwLBEeAms7f","standard","2","54","LP","1.25738905644119","447.332","448.592","449.258","1.926","0.666","3","222",NA
"141","R_OOkhWwLBEeAms7f","standard","2","55","LP","0.264713485566566","450.273","450.545","451.211","0.938","0.666","3","225",NA
"142","R_OOkhWwLBEeAms7f","standard","2","56","LP","0.661783713916415","452.216","452.881","453.55","1.334","0.669","3","228",NA
"143","R_OOkhWwLBEeAms7f","standard","2","57","LP","2.15079707022835","454.564","456.721","457.393","2.829","0.672","3","231",NA
"144","R_OOkhWwLBEeAms7f","standard","2","58","LP","8.51632916846187","458.401","466.921",NA,"9.524",NA,"0","231",NA
"145","R_OOkhWwLBEeAms7f","standard","2","59","LP","5.5010771219302","468.928","474.433","475.167","6.239","0.734","3","234",NA
"146","R_OOkhWwLBEeAms7f","standard","2","60","LP","30","476.173","506.176",NA,"31.016",NA,"0","234",NA
"147","R_OOkhWwLBEeAms7f","standard","2","61","LP","0.661783713916415","508.193","508.866",NA,"1.681",NA,"0","234",NA
"148","R_OOkhWwLBEeAms7f","standard","2","62","LP","1.25738905644119","510.888","NaN","511.139","0.251","NaN","0","234",NA
"149","R_OOkhWwLBEeAms7f","standard","2","63","LP","19.8235243429556","512.145","531.968","532.857","20.712","0.889","3","237",NA
"150","R_OOkhWwLBEeAms7f","standard","2","64","LP","19.8235243429556","533.864","553.688",NA,"20.832",NA,"0","237",NA
"151","R_OOkhWwLBEeAms7f","standard","2","65","LP","2.15079707022835","555.703","557.855","558.739","3.036","0.884","3","240",NA
"152","R_OOkhWwLBEeAms7f","standard","2","66","LP","1.25738905644119","559.743","561.001",NA,"2.262",NA,"0","240",NA
"153","R_OOkhWwLBEeAms7f","standard","2","67","LP","8.51632916846187","563.019","571.536",NA,"9.523",NA,"0","240",NA
"154","R_OOkhWwLBEeAms7f","standard","2","68","LP","13.0392072382594","573.544","586.584",NA,"14.055",NA,"0","240",NA
