"","subject_id","condition","n_block","n_trialIdx","f_timing_condition","n_scheduled_delay","n_trial_start_time","n_rewarded_time_fin","n_sell_time_fin","n_time_waited_fin","RT_fin","n_trial_earnings_fin","n_total_earnings_fin","keypress_times"
"1","R_qD8F16ig4Lrnp05","standard","1","1","HP","2","0","2.001","2.369","2.369","0.368","3","3",""
"2","R_qD8F16ig4Lrnp05","standard","1","2","HP","14","3.375","17.377","17.708","14.333","0.331","3","6",""
"3","R_qD8F16ig4Lrnp05","standard","1","3","HP","6","18.717","24.718","25.039","6.322","0.321","3","9",""
"4","R_qD8F16ig4Lrnp05","standard","1","4","HP","12","26.043","38.057","38.378","12.335","0.321","3","12",""
"5","R_qD8F16ig4Lrnp05","standard","1","5","HP","8","39.384","47.395","47.689","8.305","0.294","3","15",""
"6","R_qD8F16ig4Lrnp05","standard","1","6","HP","6","48.693","54.704","55.044","6.351","0.34","3","18",""
"7","R_qD8F16ig4Lrnp05","standard","1","7","HP","14","56.046","70.057","70.36","14.314","0.303","3","21",""
"8","R_qD8F16ig4Lrnp05","standard","1","8","HP","12","71.376","83.387","83.768","12.392","0.381","3","24",""
"9","R_qD8F16ig4Lrnp05","standard","1","9","HP","6","84.769","90.775","91.123","6.354","0.348","3","27",""
"10","R_qD8F16ig4Lrnp05","standard","1","10","HP","8","92.123","100.132","100.387","8.264","0.255","3","30",""
"11","R_qD8F16ig4Lrnp05","standard","1","11","HP","14","101.397","115.409","115.772","14.375","0.363","3","33",""
"12","R_qD8F16ig4Lrnp05","standard","1","12","HP","18","116.776","134.783","135.07","18.294","0.287","3","36",""
"13","R_qD8F16ig4Lrnp05","standard","1","13","HP","4","136.075","140.088","140.399","4.324","0.311","3","39",""
"14","R_qD8F16ig4Lrnp05","standard","1","14","HP","10","141.404","151.42","151.759","10.355","0.339","3","42",""
"15","R_qD8F16ig4Lrnp05","standard","1","15","HP","6","152.768","158.783","159.091","6.323","0.308","3","45",""
"16","R_qD8F16ig4Lrnp05","standard","1","16","HP","10","160.104","170.117","170.427","10.323","0.31","3","48",""
"17","R_qD8F16ig4Lrnp05","standard","1","17","HP","10","171.428","181.437","181.739","10.311","0.302","3","51",""
"18","R_qD8F16ig4Lrnp05","standard","1","18","HP","12","182.752","194.765","195.03","12.278","0.265","3","54",""
"19","R_qD8F16ig4Lrnp05","standard","1","19","HP","14","196.043","210.042","210.393","14.35","0.351","3","57",""
"20","R_qD8F16ig4Lrnp05","standard","1","20","HP","8","211.399","219.401","219.704","8.305","0.303","3","60",""
"21","R_qD8F16ig4Lrnp05","standard","1","21","HP","2","220.713","222.727","223.102","2.389","0.375","3","63",""
"22","R_qD8F16ig4Lrnp05","standard","1","22","HP","16","224.106","240.11","240.42","16.314","0.31","3","66",""
"23","R_qD8F16ig4Lrnp05","standard","1","23","HP","8","241.423","249.426","249.894","8.471","0.468","3","69",""
"24","R_qD8F16ig4Lrnp05","standard","1","24","HP","14","250.898","264.9","265.21","14.312","0.31","3","72",""
"25","R_qD8F16ig4Lrnp05","standard","1","25","HP","2","266.214","268.23","268.585","2.371","0.355","3","75",""
"26","R_qD8F16ig4Lrnp05","standard","1","26","HP","10","269.592","279.606","279.921","10.329","0.315","3","78",""
"27","R_qD8F16ig4Lrnp05","standard","1","27","HP","2","280.923","282.93","283.273","2.35","0.343","3","81",""
"28","R_qD8F16ig4Lrnp05","standard","1","28","HP","12","284.286","296.29","296.587","12.301","0.297","3","84",""
"29","R_qD8F16ig4Lrnp05","standard","1","29","HP","18","297.592","315.605","315.883","18.291","0.278","3","87",""
"30","R_qD8F16ig4Lrnp05","standard","1","30","HP","10","316.884","326.894","327.242","10.358","0.348","3","90",""
"31","R_qD8F16ig4Lrnp05","standard","1","31","HP","6","328.254","334.267","334.597","6.343","0.33","3","93",""
"32","R_qD8F16ig4Lrnp05","standard","1","32","HP","16","335.611","351.613","351.916","16.305","0.303","3","96",""
"33","R_qD8F16ig4Lrnp05","standard","1","33","HP","6","352.925","358.94","359.271","6.346","0.331","3","99",""
"34","R_qD8F16ig4Lrnp05","standard","1","34","HP","8","360.271","368.278","368.605","8.334","0.327","3","102",""
"35","R_qD8F16ig4Lrnp05","standard","1","35","HP","2","369.613","371.628","371.957","2.344","0.329","3","105",""
"36","R_qD8F16ig4Lrnp05","standard","1","36","HP","6","372.959","378.962","379.266","6.307","0.304","3","108",""
"37","R_qD8F16ig4Lrnp05","standard","1","37","HP","12","380.27","392.282","392.557","12.287","0.275","3","111",""
"38","R_qD8F16ig4Lrnp05","standard","1","38","HP","4","393.56","397.571","397.887","4.327","0.316","3","114",""
"39","R_qD8F16ig4Lrnp05","standard","1","39","HP","14","398.898","412.912","413.203","14.305","0.291","3","117",""
"40","R_qD8F16ig4Lrnp05","standard","1","40","HP","14","414.219","428.222","428.543","14.324","0.321","3","120",""
"41","R_qD8F16ig4Lrnp05","standard","1","41","HP","12","429.553","441.556","441.88","12.327","0.324","3","123",""
"42","R_qD8F16ig4Lrnp05","standard","1","42","HP","4","442.883","446.891","447.28","4.397","0.389","3","126",""
"43","R_qD8F16ig4Lrnp05","standard","1","43","HP","2","448.282","450.29","450.725","2.443","0.435","3","129",""
"44","R_qD8F16ig4Lrnp05","standard","1","44","HP","20","451.726","471.732","472.047","20.321","0.315","3","132",""
"45","R_qD8F16ig4Lrnp05","standard","1","45","HP","12","473.054","485.068","485.384","12.33","0.316","3","135",""
"46","R_qD8F16ig4Lrnp05","standard","1","46","HP","18","486.391","504.401","504.751","18.36","0.35","3","138",""
"47","R_qD8F16ig4Lrnp05","standard","1","47","HP","2","505.761","507.773","508.149","2.388","0.376","3","141",""
"48","R_qD8F16ig4Lrnp05","standard","1","48","HP","8","509.156","517.17","517.506","8.35","0.336","3","144",""
"49","R_qD8F16ig4Lrnp05","standard","1","49","HP","14","518.507","532.509","532.846","14.339","0.337","3","147",""
"50","R_qD8F16ig4Lrnp05","standard","1","50","HP","6","533.855","539.856","540.178","6.323","0.322","3","150",""
"51","R_qD8F16ig4Lrnp05","standard","1","51","HP","12","541.191","553.194","553.492","12.301","0.298","3","153",""
"52","R_qD8F16ig4Lrnp05","standard","1","52","HP","18","554.505","572.513","572.835","18.33","0.322","3","156",""
"53","R_qD8F16ig4Lrnp05","standard","1","53","HP","6","573.848","579.855","580.19","6.342","0.335","3","159",""
"54","R_qD8F16ig4Lrnp05","standard","1","54","HP","6","581.205","587.216","587.546","6.341","0.33","3","162",""
"55","R_qD8F16ig4Lrnp05","standard","1","55","HP","16","588.56","604.573","604.887","16.327","0.314","3","165",""
"56","R_qD8F16ig4Lrnp05","standard","1","56","HP","16","605.888","621.895","622.205","16.317","0.31","3","168",""
"57","R_qD8F16ig4Lrnp05","standard","1","57","HP","16","623.207","639.208","639.523","16.316","0.315","3","171",""
"58","R_qD8F16ig4Lrnp05","standard","1","58","HP","14","640.53","654.545","654.839","14.309","0.294","3","174",""
"59","R_qD8F16ig4Lrnp05","standard","1","59","HP","14","655.853","669.863","670.225","14.372","0.362","3","177",""
"60","R_qD8F16ig4Lrnp05","standard","1","60","HP","20","671.235","691.245","691.569","20.334","0.324","3","180",""
"61","R_qD8F16ig4Lrnp05","standard","1","61","HP","6","692.576","698.578","698.902","6.326","0.324","3","183",""
"62","R_qD8F16ig4Lrnp05","standard","1","62","HP","8","699.91","707.916","708.259","8.349","0.343","3","186",""
"63","R_qD8F16ig4Lrnp05","standard","1","63","HP","4","709.272","713.278","713.589","4.317","0.311","3","189",""
"64","R_qD8F16ig4Lrnp05","standard","1","64","HP","10","714.596","724.598","724.925","10.329","0.327","3","192",""
"65","R_qD8F16ig4Lrnp05","standard","1","65","HP","2","725.934","727.94","728.277","2.343","0.337","3","195",""
"66","R_qD8F16ig4Lrnp05","standard","1","66","HP","4","729.281","733.296","733.583","4.302","0.287","3","198",""
"67","R_qD8F16ig4Lrnp05","standard","1","67","HP","10","734.592","744.597","744.92","10.328","0.323","3","201",""
"68","R_qD8F16ig4Lrnp05","standard","1","68","HP","14","745.922","759.935","760.236","14.314","0.301","3","204",""
"69","R_qD8F16ig4Lrnp05","standard","1","69","HP","16","761.248","777.258","777.577","16.329","0.319","3","207",""
"70","R_qD8F16ig4Lrnp05","standard","1","70","HP","14","778.592","792.605","792.916","14.324","0.311","3","210",""
"71","R_qD8F16ig4Lrnp05","standard","1","71","HP","18","793.92","811.926","812.213","18.293","0.287","3","213",""
"72","R_qD8F16ig4Lrnp05","standard","1","72","HP","20","813.222","833.223","833.511","20.289","0.288","3","216",""
"73","R_qD8F16ig4Lrnp05","standard","1","73","HP","18","834.513","852.529","852.877","18.364","0.348","3","219",""
"74","R_qD8F16ig4Lrnp05","standard","1","74","HP","16","853.885","869.892","870.195","16.31","0.303","3","222",""
"75","R_qD8F16ig4Lrnp05","standard","1","75","HP","12","871.209","883.217","883.556","12.347","0.339","3","225",""
"76","R_qD8F16ig4Lrnp05","standard","1","76","HP","8","884.561","892.568","893.006","8.445","0.438","3","228",""
"77","R_qD8F16ig4Lrnp05","standard","2","1","LP","5.5010771219302","0","5.509","5.859","5.859","0.35","3","231",NA
"78","R_qD8F16ig4Lrnp05","standard","2","2","LP","1.25738905644119","6.874","8.131","8.583","1.709","0.452","3","234",NA
"79","R_qD8F16ig4Lrnp05","standard","2","3","LP","30","9.591","NaN","32.023","22.432","NaN","0","234",NA
"80","R_qD8F16ig4Lrnp05","standard","2","4","LP","0.264713485566566","33.036","33.304","33.675","0.639","0.371","3","237",NA
"81","R_qD8F16ig4Lrnp05","standard","2","5","LP","13.0392072382594","34.684","47.731","48.037","13.353","0.306","3","240",NA
"82","R_qD8F16ig4Lrnp05","standard","2","6","LP","30","49.041","NaN","67.24","18.199","NaN","0","240",NA
"83","R_qD8F16ig4Lrnp05","standard","2","7","LP","2.15079707022835","68.254","70.415","70.755","2.501","0.34","3","243",NA
"84","R_qD8F16ig4Lrnp05","standard","2","8","LP","30","71.76","NaN","89.028","17.268","NaN","0","243",NA
"85","R_qD8F16ig4Lrnp05","standard","2","9","LP","3.49090909090909","90.042","93.547","93.869","3.827","0.322","3","246",NA
"86","R_qD8F16ig4Lrnp05","standard","2","10","LP","1.25738905644119","94.881","96.149","96.499","1.618","0.35","3","249",NA
"87","R_qD8F16ig4Lrnp05","standard","2","11","LP","8.51632916846187","97.511","106.036","106.438","8.927","0.402","3","252",NA
"88","R_qD8F16ig4Lrnp05","standard","2","12","LP","19.8235243429556","107.453","NaN","124.408","16.955","NaN","0","252",NA
"89","R_qD8F16ig4Lrnp05","standard","2","13","LP","0.661783713916415","125.411","126.088","126.409","0.998","0.321","3","255",NA
"90","R_qD8F16ig4Lrnp05","standard","2","14","LP","5.5010771219302","127.413","132.927","133.206","5.793","0.279","3","258",NA
"91","R_qD8F16ig4Lrnp05","standard","2","15","LP","0.661783713916415","134.22","134.882","135.208","0.988","0.326","3","261",NA
"92","R_qD8F16ig4Lrnp05","standard","2","16","LP","1.25738905644119","136.21","137.48","137.838","1.628","0.358","3","264",NA
"93","R_qD8F16ig4Lrnp05","standard","2","17","LP","0.661783713916415","138.851","139.517","139.817","0.966","0.3","3","267",NA
"94","R_qD8F16ig4Lrnp05","standard","2","18","LP","0.264713485566566","140.832","141.097","141.423","0.591","0.326","3","270",NA
"95","R_qD8F16ig4Lrnp05","standard","2","19","LP","3.49090909090909","142.425","145.93","146.265","3.84","0.335","3","273",NA
"96","R_qD8F16ig4Lrnp05","standard","2","20","LP","30","147.276","NaN","164.212","16.936","NaN","0","273",NA
"97","R_qD8F16ig4Lrnp05","standard","2","21","LP","8.51632916846187","165.223","173.74","174.104","8.881","0.364","3","276",NA
"98","R_qD8F16ig4Lrnp05","standard","2","22","LP","5.5010771219302","175.117","180.621","180.947","5.83","0.326","3","279",NA
"99","R_qD8F16ig4Lrnp05","standard","2","23","LP","2.15079707022835","181.957","184.118","184.438","2.481","0.32","3","282",NA
"100","R_qD8F16ig4Lrnp05","standard","2","24","LP","5.5010771219302","185.449","190.956","191.283","5.834","0.327","3","285",NA
"101","R_qD8F16ig4Lrnp05","standard","2","25","LP","0.264713485566566","192.283","192.551","192.934","0.651","0.383","3","288",NA
"102","R_qD8F16ig4Lrnp05","standard","2","26","LP","3.49090909090909","193.942","197.449","197.776","3.834","0.327","3","291",NA
"103","R_qD8F16ig4Lrnp05","standard","2","27","LP","19.8235243429556","198.779","NaN","217.911","19.132","NaN","0","291",NA
"104","R_qD8F16ig4Lrnp05","standard","2","28","LP","2.15079707022835","218.926","221.08","221.402","2.476","0.322","3","294",NA
"105","R_qD8F16ig4Lrnp05","standard","2","29","LP","19.8235243429556","222.413","NaN","238.696","16.283","NaN","0","294",NA
"106","R_qD8F16ig4Lrnp05","standard","2","30","LP","3.49090909090909","239.709","243.209","243.538","3.829","0.329","3","297",NA
"107","R_qD8F16ig4Lrnp05","standard","2","31","LP","13.0392072382594","244.54","257.592","257.946","13.406","0.354","3","300",NA
"108","R_qD8F16ig4Lrnp05","standard","2","32","LP","8.51632916846187","258.948","267.475","267.816","8.868","0.341","3","303",NA
"109","R_qD8F16ig4Lrnp05","standard","2","33","LP","2.15079707022835","268.816","270.98","271.284","2.468","0.304","3","306",NA
"110","R_qD8F16ig4Lrnp05","standard","2","34","LP","30","272.287","NaN","288.858","16.571","NaN","0","306",NA
"111","R_qD8F16ig4Lrnp05","standard","2","35","LP","3.49090909090909","289.862","293.356","293.676","3.814","0.32","3","309",NA
"112","R_qD8F16ig4Lrnp05","standard","2","36","LP","13.0392072382594","294.691","307.74","308.108","13.417","0.368","3","312",NA
"113","R_qD8F16ig4Lrnp05","standard","2","37","LP","0.661783713916415","309.117","309.779","310.203","1.086","0.424","3","315",NA
"114","R_qD8F16ig4Lrnp05","standard","2","38","LP","8.51632916846187","311.207","319.731","320.118","8.911","0.387","3","318",NA
"115","R_qD8F16ig4Lrnp05","standard","2","39","LP","0.264713485566566","321.124","321.404","321.771","0.647","0.367","3","321",NA
"116","R_qD8F16ig4Lrnp05","standard","2","40","LP","8.51632916846187","322.778","331.309","331.641","8.863","0.332","3","324",NA
"117","R_qD8F16ig4Lrnp05","standard","2","41","LP","5.5010771219302","332.645","338.155","338.507","5.862","0.352","3","327",NA
"118","R_qD8F16ig4Lrnp05","standard","2","42","LP","0.264713485566566","339.513","339.79","340.136","0.623","0.346","3","330",NA
"119","R_qD8F16ig4Lrnp05","standard","2","43","LP","30","341.136","NaN","357.71","16.574","NaN","0","330",NA
"120","R_qD8F16ig4Lrnp05","standard","2","44","LP","19.8235243429556","358.714","NaN","376.216","17.502","NaN","0","330",NA
"121","R_qD8F16ig4Lrnp05","standard","2","45","LP","8.51632916846187","377.218","385.746","386.131","8.913","0.385","3","333",NA
"122","R_qD8F16ig4Lrnp05","standard","2","46","LP","2.15079707022835","387.135","389.287","389.646","2.511","0.359","3","336",NA
"123","R_qD8F16ig4Lrnp05","standard","2","47","LP","1.25738905644119","390.656","391.926","392.253","1.597","0.327","3","339",NA
"124","R_qD8F16ig4Lrnp05","standard","2","48","LP","5.5010771219302","393.254","398.769","399.073","5.819","0.304","3","342",NA
"125","R_qD8F16ig4Lrnp05","standard","2","49","LP","13.0392072382594","400.08","NaN","412.178","12.098","NaN","0","342",NA
"126","R_qD8F16ig4Lrnp05","standard","2","50","LP","3.49090909090909","413.187","416.689","417.275","4.088","0.586","3","345",NA
"127","R_qD8F16ig4Lrnp05","standard","2","51","LP","0.264713485566566","418.286","418.554","418.998","0.712","0.444","3","348",NA
"128","R_qD8F16ig4Lrnp05","standard","2","52","LP","1.25738905644119","420.007","421.273","421.861","1.854","0.588","3","351",NA
"129","R_qD8F16ig4Lrnp05","standard","2","53","LP","19.8235243429556","422.868","NaN","435.665","12.797","NaN","0","351",NA
"130","R_qD8F16ig4Lrnp05","standard","2","54","LP","1.25738905644119","436.679","437.944","438.248","1.569","0.304","3","354",NA
"131","R_qD8F16ig4Lrnp05","standard","2","55","LP","8.51632916846187","439.259","447.781","448.118","8.859","0.337","3","357",NA
"132","R_qD8F16ig4Lrnp05","standard","2","56","LP","3.49090909090909","449.132","452.623","453.005","3.873","0.382","3","360",NA
"133","R_qD8F16ig4Lrnp05","standard","2","57","LP","19.8235243429556","454.016","NaN","463.294","9.278","NaN","0","360",NA
"134","R_qD8F16ig4Lrnp05","standard","2","58","LP","30","464.296","NaN","475.421","11.125","NaN","0","360",NA
"135","R_qD8F16ig4Lrnp05","standard","2","59","LP","3.49090909090909","476.433","479.926","480.309","3.876","0.383","3","363",NA
"136","R_qD8F16ig4Lrnp05","standard","2","60","LP","8.51632916846187","481.314","489.833","490.178","8.864","0.345","3","366",NA
"137","R_qD8F16ig4Lrnp05","standard","2","61","LP","3.49090909090909","491.181","494.674","494.973","3.792","0.299","3","369",NA
"138","R_qD8F16ig4Lrnp05","standard","2","62","LP","3.49090909090909","495.984","499.479","499.815","3.831","0.336","3","372",NA
"139","R_qD8F16ig4Lrnp05","standard","2","63","LP","0.264713485566566","500.828","501.097","501.491","0.663","0.394","3","375",NA
"140","R_qD8F16ig4Lrnp05","standard","2","64","LP","5.5010771219302","502.493","508.003","508.357","5.864","0.354","3","378",NA
"141","R_qD8F16ig4Lrnp05","standard","2","65","LP","19.8235243429556","509.358","NaN","519.856","10.498","NaN","0","378",NA
"142","R_qD8F16ig4Lrnp05","standard","2","66","LP","19.8235243429556","520.87","NaN","535.358","14.488","NaN","0","378",NA
"143","R_qD8F16ig4Lrnp05","standard","2","67","LP","0.661783713916415","536.371","537.033","537.36","0.989","0.327","3","381",NA
"144","R_qD8F16ig4Lrnp05","standard","2","68","LP","0.264713485566566","538.362","538.626","538.99","0.628","0.364","3","384",NA
"145","R_qD8F16ig4Lrnp05","standard","2","69","LP","2.15079707022835","539.995","542.161","542.551","2.556","0.39","3","387",NA
"146","R_qD8F16ig4Lrnp05","standard","2","70","LP","30","543.559","NaN","552.444","8.885","NaN","0","387",NA
"147","R_qD8F16ig4Lrnp05","standard","2","71","LP","8.51632916846187","553.45","561.972","562.314","8.864","0.342","3","390",NA
"148","R_qD8F16ig4Lrnp05","standard","2","72","LP","13.0392072382594","563.318","NaN","572.183","8.865","NaN","0","390",NA
"149","R_qD8F16ig4Lrnp05","standard","2","73","LP","1.25738905644119","573.183","574.453","574.766","1.583","0.313","3","393",NA
"150","R_qD8F16ig4Lrnp05","standard","2","74","LP","1.25738905644119","575.77","577.041","577.373","1.603","0.332","3","396",NA
"151","R_qD8F16ig4Lrnp05","standard","2","75","LP","1.25738905644119","578.385","579.644","579.957","1.572","0.313","3","399",NA
"152","R_qD8F16ig4Lrnp05","standard","2","76","LP","13.0392072382594","580.968","NaN","583.728","2.76","NaN","0","399",NA
"153","R_qD8F16ig4Lrnp05","standard","2","77","LP","30","584.728","NaN","588.406","3.678","NaN","0","399",NA
"154","R_qD8F16ig4Lrnp05","standard","2","78","LP","30","589.407","NaN","594.644","5.237","NaN","0","399",NA
