"","subject_id","condition","n_block","n_trialIdx","f_timing_condition","n_scheduled_delay","n_trial_start_time","n_rewarded_time_fin","n_sell_time_fin","n_time_waited_fin","RT_fin","n_trial_earnings_fin","n_total_earnings_fin","keypress_times"
"1","R_qKJGLUjGzCRDicV","standard","1","1","HP","2","0","2.002","2.45","2.45","0.448","3","3",""
"2","R_qKJGLUjGzCRDicV","standard","1","2","HP","20","3.459","23.469","23.86","20.401","0.391","3","6",""
"3","R_qKJGLUjGzCRDicV","standard","1","3","HP","6","24.863","30.875","31.354","6.491","0.479","3","9",""
"4","R_qKJGLUjGzCRDicV","standard","1","4","HP","12","32.37","44.381","44.827","12.457","0.446","3","12",""
"5","R_qKJGLUjGzCRDicV","standard","1","5","HP","4","45.83","49.833","50.306","4.476","0.473","3","15",""
"6","R_qKJGLUjGzCRDicV","standard","1","6","HP","6","51.32","57.323","57.736","6.416","0.413","3","18",""
"7","R_qKJGLUjGzCRDicV","standard","1","7","HP","12","58.748","70.758","71.147","12.399","0.389","3","21",""
"8","R_qKJGLUjGzCRDicV","standard","1","8","HP","10","72.164","82.175","82.612","10.448","0.437","3","24",""
"9","R_qKJGLUjGzCRDicV","standard","1","9","HP","4","83.621","87.623","88.109","4.488","0.486","3","27",""
"10","R_qKJGLUjGzCRDicV","standard","1","10","HP","20","89.11","109.113","109.49","20.38","0.377","3","30",""
"11","R_qKJGLUjGzCRDicV","standard","1","11","HP","10","110.492","120.502","121.106","10.614","0.604","3","33",""
"12","R_qKJGLUjGzCRDicV","standard","1","12","HP","16","122.122","138.131","138.45","16.328","0.319","3","36",""
"13","R_qKJGLUjGzCRDicV","standard","1","13","HP","18","139.464","157.48","157.949","18.485","0.469","3","39",""
"14","R_qKJGLUjGzCRDicV","standard","1","14","HP","8","158.951","166.955","167.322","8.371","0.367","3","42",""
"15","R_qKJGLUjGzCRDicV","standard","1","15","HP","2","168.324","170.326","170.961","2.637","0.635","3","45",""
"16","R_qKJGLUjGzCRDicV","standard","1","16","HP","12","171.966","183.975","184.379","12.413","0.404","3","48",""
"17","R_qKJGLUjGzCRDicV","standard","1","17","HP","20","185.391","205.405","205.946","20.555","0.541","3","51",""
"18","R_qKJGLUjGzCRDicV","standard","1","18","HP","8","206.954","214.955","215.362","8.408","0.407","3","54",""
"19","R_qKJGLUjGzCRDicV","standard","1","19","HP","2","216.363","218.377","219.113","2.75","0.736","3","57",""
"20","R_qKJGLUjGzCRDicV","standard","1","20","HP","8","220.115","228.122","228.531","8.416","0.409","3","60",""
"21","R_qKJGLUjGzCRDicV","standard","1","21","HP","12","229.536","241.542","241.955","12.419","0.413","3","63",""
"22","R_qKJGLUjGzCRDicV","standard","1","22","HP","20","242.956","262.961","263.386","20.43","0.425","3","66",""
"23","R_qKJGLUjGzCRDicV","standard","1","23","HP","12","264.391","276.394","276.802","12.411","0.408","3","69",""
"24","R_qKJGLUjGzCRDicV","standard","1","24","HP","8","277.809","285.816","286.218","8.409","0.402","3","72",""
"25","R_qKJGLUjGzCRDicV","standard","1","25","HP","8","287.228","295.233","295.619","8.391","0.386","3","75",""
"26","R_qKJGLUjGzCRDicV","standard","1","26","HP","4","296.63","300.644","301.002","4.372","0.358","3","78",""
"27","R_qKJGLUjGzCRDicV","standard","1","27","HP","2","302.008","304.01","304.612","2.604","0.602","3","81",""
"28","R_qKJGLUjGzCRDicV","standard","1","28","HP","8","305.622","313.622","314.21","8.588","0.588","3","84",""
"29","R_qKJGLUjGzCRDicV","standard","1","29","HP","18","315.216","333.227","333.595","18.379","0.368","3","87",""
"30","R_qKJGLUjGzCRDicV","standard","1","30","HP","6","334.599","340.609","340.994","6.395","0.385","3","90",""
"31","R_qKJGLUjGzCRDicV","standard","1","31","HP","14","342.008","356.021","356.586","14.578","0.565","3","93",""
"32","R_qKJGLUjGzCRDicV","standard","1","32","HP","6","357.587","363.592","364.049","6.462","0.457","3","96",""
"33","R_qKJGLUjGzCRDicV","standard","1","33","HP","20","365.056","385.067","385.458","20.402","0.391","3","99",""
"34","R_qKJGLUjGzCRDicV","standard","1","34","HP","4","386.463","390.468","390.937","4.474","0.469","3","102",""
"35","R_qKJGLUjGzCRDicV","standard","1","35","HP","10","391.942","401.944","402.362","10.42","0.418","3","105",""
"36","R_qKJGLUjGzCRDicV","standard","1","36","HP","6","403.375","409.385","409.834","6.459","0.449","3","108",""
"37","R_qKJGLUjGzCRDicV","standard","1","37","HP","4","410.842","414.856","415.33","4.488","0.474","3","111",""
"38","R_qKJGLUjGzCRDicV","standard","1","38","HP","14","416.331","430.346","430.714","14.383","0.368","3","114",""
"39","R_qKJGLUjGzCRDicV","standard","1","39","HP","20","431.726","451.729","452.163","20.437","0.434","3","117",""
"40","R_qKJGLUjGzCRDicV","standard","1","40","HP","16","453.172","469.178","469.634","16.462","0.456","3","120",""
"41","R_qKJGLUjGzCRDicV","standard","1","41","HP","18","470.637","488.648","489.059","18.422","0.411","3","123",""
"42","R_qKJGLUjGzCRDicV","standard","1","42","HP","6","490.073","496.081","496.514","6.441","0.433","3","126",""
"43","R_qKJGLUjGzCRDicV","standard","1","43","HP","12","497.526","509.536","510.019","12.493","0.483","3","129",""
"44","R_qKJGLUjGzCRDicV","standard","1","44","HP","2","511.024","513.039","NA","3.026","NA","0","129",""
"45","R_qKJGLUjGzCRDicV","standard","1","45","HP","12","515.059","527.063","527.522","12.463","0.459","3","132",""
"46","R_qKJGLUjGzCRDicV","standard","1","46","HP","18","528.527","546.534","546.945","18.418","0.411","3","135",""
"47","R_qKJGLUjGzCRDicV","standard","1","47","HP","12","547.949","559.953","560.347","12.398","0.394","3","138",""
"48","R_qKJGLUjGzCRDicV","standard","1","48","HP","10","561.347","571.35","571.763","10.416","0.413","3","141",""
"49","R_qKJGLUjGzCRDicV","standard","1","49","HP","14","572.771","586.775","587.322","14.551","0.547","3","144",""
"50","R_qKJGLUjGzCRDicV","standard","1","50","HP","12","588.323","600.332","600.81","12.487","0.478","3","147",""
"51","R_qKJGLUjGzCRDicV","standard","1","51","HP","20","601.823","621.835","622.267","20.444","0.432","3","150",""
"52","R_qKJGLUjGzCRDicV","standard","1","52","HP","2","623.28","625.282","625.769","2.489","0.487","3","153",""
"53","R_qKJGLUjGzCRDicV","standard","1","53","HP","6","626.777","632.79","633.204","6.427","0.414","3","156",""
"54","R_qKJGLUjGzCRDicV","standard","1","54","HP","6","634.218","640.22","640.626","6.408","0.406","3","159",""
"55","R_qKJGLUjGzCRDicV","standard","1","55","HP","10","641.631","651.645","652.066","10.435","0.421","3","162",""
"56","R_qKJGLUjGzCRDicV","standard","1","56","HP","20","653.069","673.072","673.53","20.461","0.458","3","162","11998"
"57","R_qKJGLUjGzCRDicV","standard","1","57","HP","6","674.543","680.548","680.93","6.387","0.382","3","165",""
"58","R_qKJGLUjGzCRDicV","standard","1","58","HP","4","681.943","685.948","686.426","4.483","0.478","3","168",""
"59","R_qKJGLUjGzCRDicV","standard","1","59","HP","18","687.44","705.453","705.93","18.49","0.477","3","171",""
"60","R_qKJGLUjGzCRDicV","standard","1","60","HP","6","706.936","712.944","713.419","6.483","0.475","3","174",""
"61","R_qKJGLUjGzCRDicV","standard","1","61","HP","18","714.435","732.438","732.778","18.343","0.34","3","177",""
"62","R_qKJGLUjGzCRDicV","standard","1","62","HP","8","733.779","741.792","742.203","8.424","0.411","3","180",""
"63","R_qKJGLUjGzCRDicV","standard","1","63","HP","20","743.204","763.214","763.667","20.463","0.453","3","183",""
"64","R_qKJGLUjGzCRDicV","standard","1","64","HP","4","764.677","768.686","769.37","4.693","0.684","3","186",""
"65","R_qKJGLUjGzCRDicV","standard","1","65","HP","20","770.378","790.388","790.779","20.401","0.391","3","189",""
"66","R_qKJGLUjGzCRDicV","standard","1","66","HP","8","791.792","799.806","800.219","8.427","0.413","3","192",""
"67","R_qKJGLUjGzCRDicV","standard","1","67","HP","4","801.227","805.235","805.677","4.45","0.442","3","195",""
"68","R_qKJGLUjGzCRDicV","standard","1","68","HP","10","806.693","816.701","817.098","10.405","0.397","3","198",""
"69","R_qKJGLUjGzCRDicV","standard","1","69","HP","8","818.111","826.118","826.514","8.403","0.396","3","201",""
"70","R_qKJGLUjGzCRDicV","standard","1","70","HP","12","827.527","839.539","839.922","12.395","0.383","3","204",""
"71","R_qKJGLUjGzCRDicV","standard","1","71","HP","4","840.931","844.943","845.443","4.512","0.5","3","207",""
"72","R_qKJGLUjGzCRDicV","standard","1","72","HP","8","846.449","854.453","854.922","8.473","0.469","3","210",""
"73","R_qKJGLUjGzCRDicV","standard","1","73","HP","6","855.927","861.936","862.355","6.428","0.419","3","213",""
"74","R_qKJGLUjGzCRDicV","standard","1","74","HP","20","863.364","883.365","883.731","20.367","0.366","3","216",""
"75","R_qKJGLUjGzCRDicV","standard","2","1","LP","5.5010771219302","0.001","5.51","5.915","5.914","0.405","3","219",NA
"76","R_qKJGLUjGzCRDicV","standard","2","2","LP","5.5010771219302","6.918","12.428","12.85","5.932","0.422","3","222",NA
"77","R_qKJGLUjGzCRDicV","standard","2","3","LP","3.49090909090909","13.86","17.363","17.81","3.95","0.447","3","225",NA
"78","R_qKJGLUjGzCRDicV","standard","2","4","LP","1.25738905644119","18.821","20.092","20.532","1.711","0.44","3","228",NA
"79","R_qKJGLUjGzCRDicV","standard","2","5","LP","3.49090909090909","21.539","25.032","25.457","3.918","0.425","3","231",NA
"80","R_qKJGLUjGzCRDicV","standard","2","6","LP","1.25738905644119","26.469","27.74","28.178","1.709","0.438","3","234",NA
"81","R_qKJGLUjGzCRDicV","standard","2","7","LP","0.661783713916415","29.182","29.848","30.283","1.101","0.435","3","237",NA
"82","R_qKJGLUjGzCRDicV","standard","2","8","LP","30","31.292","NaN","40.572","9.28","NaN","0","237",NA
"83","R_qKJGLUjGzCRDicV","standard","2","9","LP","30","41.572","71.578","71.988","30.416","0.41","3","240",NA
"84","R_qKJGLUjGzCRDicV","standard","2","10","LP","30","72.993","NaN","81.675","8.682","NaN","0","240",NA
"85","R_qKJGLUjGzCRDicV","standard","2","11","LP","8.51632916846187","82.678","91.203","91.93","9.252","0.727","3","243",NA
"86","R_qKJGLUjGzCRDicV","standard","2","12","LP","30","92.944","122.959","123.331","30.387","0.372","3","246",NA
"87","R_qKJGLUjGzCRDicV","standard","2","13","LP","0.661783713916415","124.341","125.004","125.651","1.31","0.647","3","249",NA
"88","R_qKJGLUjGzCRDicV","standard","2","14","LP","1.25738905644119","126.664","127.923","128.434","1.77","0.511","3","252",NA
"89","R_qKJGLUjGzCRDicV","standard","2","15","LP","2.15079707022835","129.441","131.602","132.194","2.753","0.592","3","255",NA
"90","R_qKJGLUjGzCRDicV","standard","2","16","LP","2.15079707022835","133.197","135.354","135.77","2.573","0.416","3","258",NA
"91","R_qKJGLUjGzCRDicV","standard","2","17","LP","5.5010771219302","136.782","142.286","142.715","5.933","0.429","3","261",NA
"92","R_qKJGLUjGzCRDicV","standard","2","18","LP","0.264713485566566","143.728","144.006","144.723","0.995","0.717","3","264",NA
"93","R_qKJGLUjGzCRDicV","standard","2","19","LP","8.51632916846187","145.731","154.251","154.611","8.88","0.36","3","267",NA
"94","R_qKJGLUjGzCRDicV","standard","2","20","LP","30","155.615","NaN","167.147","11.532","NaN","0","267",NA
"95","R_qKJGLUjGzCRDicV","standard","2","21","LP","2.15079707022835","168.15","170.313","170.738","2.588","0.425","3","270",NA
"96","R_qKJGLUjGzCRDicV","standard","2","22","LP","30","171.745","NaN","183.747","12.002","NaN","0","270",NA
"97","R_qKJGLUjGzCRDicV","standard","2","23","LP","8.51632916846187","184.755","193.281","193.69","8.935","0.409","3","273",NA
"98","R_qKJGLUjGzCRDicV","standard","2","24","LP","0.264713485566566","194.695","194.973","195.812","1.117","0.839","3","276",NA
"99","R_qKJGLUjGzCRDicV","standard","2","25","LP","0.264713485566566","196.828","197.093","197.58","0.752","0.487","3","279",NA
"100","R_qKJGLUjGzCRDicV","standard","2","26","LP","0.264713485566566","198.584","198.849","199.402","0.818","0.553","3","282",NA
"101","R_qKJGLUjGzCRDicV","standard","2","27","LP","5.5010771219302","200.404","205.917","206.331","5.927","0.414","3","285",NA
"102","R_qKJGLUjGzCRDicV","standard","2","28","LP","0.264713485566566","207.333","207.61","208.274","0.941","0.664","3","288",NA
"103","R_qKJGLUjGzCRDicV","standard","2","29","LP","1.25738905644119","209.284","210.552","210.946","1.662","0.394","3","291",NA
"104","R_qKJGLUjGzCRDicV","standard","2","30","LP","5.5010771219302","211.953","217.463","217.874","5.921","0.411","3","294",NA
"105","R_qKJGLUjGzCRDicV","standard","2","31","LP","13.0392072382594","218.877","231.92","232.132","13.255","0.212","3","297",NA
"106","R_qKJGLUjGzCRDicV","standard","2","32","LP","8.51632916846187","233.132","241.655","242.034","8.902","0.379","3","300",NA
"107","R_qKJGLUjGzCRDicV","standard","2","33","LP","0.661783713916415","243.04","243.706","244.251","1.211","0.545","3","303",NA
"108","R_qKJGLUjGzCRDicV","standard","2","34","LP","19.8235243429556","245.26","NaN","260.773","15.513","NaN","0","303",NA
"109","R_qKJGLUjGzCRDicV","standard","2","35","LP","30","261.783","NaN","276.299","14.516","NaN","0","303",NA
"110","R_qKJGLUjGzCRDicV","standard","2","36","LP","5.5010771219302","277.314","282.825","283.218","5.904","0.393","3","306",NA
"111","R_qKJGLUjGzCRDicV","standard","2","37","LP","30","284.219","314.225","314.531","30.312","0.306","3","309",NA
"112","R_qKJGLUjGzCRDicV","standard","2","38","LP","30","315.545","345.546","345.892","30.347","0.346","3","312",NA
"113","R_qKJGLUjGzCRDicV","standard","2","39","LP","0.264713485566566","346.899","347.163","347.771","0.872","0.608","3","315",NA
"114","R_qKJGLUjGzCRDicV","standard","2","40","LP","2.15079707022835","348.776","350.932","351.347","2.571","0.415","3","318",NA
"115","R_qKJGLUjGzCRDicV","standard","2","41","LP","5.5010771219302","352.36","357.875","358.42","6.06","0.545","3","321",NA
"116","R_qKJGLUjGzCRDicV","standard","2","42","LP","2.15079707022835","359.424","361.581","361.954","2.53","0.373","3","324",NA
"117","R_qKJGLUjGzCRDicV","standard","2","43","LP","19.8235243429556","362.96","382.784","383.251","20.291","0.467","3","327",NA
"118","R_qKJGLUjGzCRDicV","standard","2","44","LP","8.51632916846187","384.253","392.773","393.315","9.062","0.542","3","330",NA
"119","R_qKJGLUjGzCRDicV","standard","2","45","LP","1.25738905644119","394.325","395.594","396.379","2.054","0.785","3","333",NA
"120","R_qKJGLUjGzCRDicV","standard","2","46","LP","13.0392072382594","397.382","410.437","410.859","13.477","0.422","3","336",NA
"121","R_qKJGLUjGzCRDicV","standard","2","47","LP","5.5010771219302","411.869","417.372","417.818","5.949","0.446","3","339",NA
"122","R_qKJGLUjGzCRDicV","standard","2","48","LP","3.49090909090909","418.824","422.317","422.731","3.907","0.414","3","342",NA
"123","R_qKJGLUjGzCRDicV","standard","2","49","LP","1.25738905644119","423.744","425.004","425.451","1.707","0.447","3","345",NA
"124","R_qKJGLUjGzCRDicV","standard","2","50","LP","8.51632916846187","426.466","434.989","435.379","8.913","0.39","3","348",NA
"125","R_qKJGLUjGzCRDicV","standard","2","51","LP","3.49090909090909","436.389","439.896","440.322","3.933","0.426","3","351",NA
"126","R_qKJGLUjGzCRDicV","standard","2","52","LP","5.5010771219302","441.324","446.826","447.234","5.91","0.408","3","354",NA
"127","R_qKJGLUjGzCRDicV","standard","2","53","LP","2.15079707022835","448.241","450.398","450.866","2.625","0.468","3","357",NA
"128","R_qKJGLUjGzCRDicV","standard","2","54","LP","5.5010771219302","451.872","457.378","457.866","5.994","0.488","3","360",NA
"129","R_qKJGLUjGzCRDicV","standard","2","55","LP","1.25738905644119","458.872","460.142","460.595","1.723","0.453","3","363",NA
"130","R_qKJGLUjGzCRDicV","standard","2","56","LP","0.264713485566566","461.604","461.884","462.362","0.758","0.478","3","366",NA
"131","R_qKJGLUjGzCRDicV","standard","2","57","LP","3.49090909090909","463.373","466.878","467.259","3.886","0.381","3","369",NA
"132","R_qKJGLUjGzCRDicV","standard","2","58","LP","0.661783713916415","468.273","468.942","469.387","1.114","0.445","3","372",NA
"133","R_qKJGLUjGzCRDicV","standard","2","59","LP","8.51632916846187","470.393","478.923","479.579","9.186","0.656","3","375",NA
"134","R_qKJGLUjGzCRDicV","standard","2","60","LP","0.661783713916415","480.583","481.253","481.722","1.139","0.469","3","378",NA
"135","R_qKJGLUjGzCRDicV","standard","2","61","LP","30","482.728","512.742","513.101","30.373","0.359","3","381",NA
"136","R_qKJGLUjGzCRDicV","standard","2","62","LP","0.264713485566566","514.104","514.385","514.883","0.779","0.498","3","384",NA
"137","R_qKJGLUjGzCRDicV","standard","2","63","LP","5.5010771219302","515.885","521.396","521.851","5.966","0.455","3","387",NA
"138","R_qKJGLUjGzCRDicV","standard","2","64","LP","13.0392072382594","522.852","535.905","536.475","13.623","0.57","3","390",NA
"139","R_qKJGLUjGzCRDicV","standard","2","65","LP","5.5010771219302","537.481","542.988","543.464","5.983","0.476","3","393",NA
"140","R_qKJGLUjGzCRDicV","standard","2","66","LP","1.25738905644119","544.479","545.74","546.178","1.699","0.438","3","396",NA
"141","R_qKJGLUjGzCRDicV","standard","2","67","LP","8.51632916846187","547.184","555.705","556.355","9.171","0.65","3","399",NA
"142","R_qKJGLUjGzCRDicV","standard","2","68","LP","19.8235243429556","557.37","577.2","577.586","20.216","0.386","3","402",NA
