"","subject_id","condition","n_block","n_trialIdx","f_timing_condition","n_scheduled_delay","n_trial_start_time","n_rewarded_time_fin","n_sell_time_fin","n_time_waited_fin","RT_fin","n_trial_earnings_fin","n_total_earnings_fin","keypress_times"
"1","R_RKYFzLUnTCzrshr","standard","1","1","HP","18","0.004","18.01","18.365","18.361","0.355","3","3",""
"2","R_RKYFzLUnTCzrshr","standard","1","2","HP","18","19.368","37.371","37.712","18.344","0.341","3","6",""
"3","R_RKYFzLUnTCzrshr","standard","1","3","HP","8","38.713","46.714","47.138","8.425","0.424","3","9",""
"4","R_RKYFzLUnTCzrshr","standard","1","4","HP","16","48.14","64.142","64.49","16.35","0.348","3","12",""
"5","R_RKYFzLUnTCzrshr","standard","1","5","HP","4","65.492","69.494","69.919","4.427","0.425","3","15",""
"6","R_RKYFzLUnTCzrshr","standard","1","6","HP","2","70.921","72.923","73.36","2.439","0.437","3","18",""
"7","R_RKYFzLUnTCzrshr","standard","1","7","HP","20","74.362","94.364","94.728","20.366","0.364","3","21",""
"8","R_RKYFzLUnTCzrshr","standard","1","8","HP","2","95.73","97.731","98.143","2.413","0.412","3","24",""
"9","R_RKYFzLUnTCzrshr","standard","1","9","HP","10","99.146","109.149","109.683","10.537","0.534","3","27",""
"10","R_RKYFzLUnTCzrshr","standard","1","10","HP","20","110.685","130.688","131.032","20.347","0.344","3","30",""
"11","R_RKYFzLUnTCzrshr","standard","1","11","HP","8","132.034","140.036","140.44","8.406","0.404","3","33",""
"12","R_RKYFzLUnTCzrshr","standard","1","12","HP","12","141.442","153.443","153.782","12.34","0.339","3","36",""
"13","R_RKYFzLUnTCzrshr","standard","1","13","HP","18","154.784","172.786","173.141","18.357","0.355","3","39",""
"14","R_RKYFzLUnTCzrshr","standard","1","14","HP","20","174.143","194.146","194.498","20.355","0.352","3","42",""
"15","R_RKYFzLUnTCzrshr","standard","1","15","HP","12","195.5","207.502","207.915","12.415","0.413","3","45",""
"16","R_RKYFzLUnTCzrshr","standard","1","16","HP","10","208.916","218.917","219.286","10.37","0.369","3","48",""
"17","R_RKYFzLUnTCzrshr","standard","1","17","HP","4","220.288","224.29","224.683","4.395","0.393","3","51",""
"18","R_RKYFzLUnTCzrshr","standard","1","18","HP","4","225.684","229.685","230.087","4.403","0.402","3","54",""
"19","R_RKYFzLUnTCzrshr","standard","1","19","HP","20","231.089","251.091","251.452","20.363","0.361","3","57",""
"20","R_RKYFzLUnTCzrshr","standard","1","20","HP","14","252.454","266.456","266.819","14.365","0.363","3","60",""
"21","R_RKYFzLUnTCzrshr","standard","1","21","HP","18","267.82","285.821","286.169","18.349","0.348","3","63",""
"22","R_RKYFzLUnTCzrshr","standard","1","22","HP","8","287.17","295.172","295.596","8.426","0.424","3","66",""
"23","R_RKYFzLUnTCzrshr","standard","1","23","HP","2","296.598","298.6","299.018","2.42","0.418","3","69",""
"24","R_RKYFzLUnTCzrshr","standard","1","24","HP","18","300.019","318.019","318.428","18.409","0.409","3","72",""
"25","R_RKYFzLUnTCzrshr","standard","1","25","HP","16","319.429","335.43","335.762","16.333","0.332","3","75",""
"26","R_RKYFzLUnTCzrshr","standard","1","26","HP","8","336.764","344.766","345.187","8.423","0.421","3","78",""
"27","R_RKYFzLUnTCzrshr","standard","1","27","HP","20","346.19","366.191","366.549","20.359","0.358","3","81",""
"28","R_RKYFzLUnTCzrshr","standard","1","28","HP","20","367.55","387.553","387.892","20.342","0.339","3","84",""
"29","R_RKYFzLUnTCzrshr","standard","1","29","HP","4","388.895","392.897","393.361","4.466","0.464","3","87",""
"30","R_RKYFzLUnTCzrshr","standard","1","30","HP","14","394.363","408.366","408.829","14.466","0.463","3","90",""
"31","R_RKYFzLUnTCzrshr","standard","1","31","HP","10","409.831","419.834","420.246","10.415","0.412","3","93",""
"32","R_RKYFzLUnTCzrshr","standard","1","32","HP","2","421.247","423.249","423.689","2.442","0.44","3","96",""
"33","R_RKYFzLUnTCzrshr","standard","1","33","HP","6","424.69","430.693","431.072","6.382","0.379","3","99",""
"34","R_RKYFzLUnTCzrshr","standard","1","34","HP","12","432.074","444.079","444.455","12.381","0.376","3","102",""
"35","R_RKYFzLUnTCzrshr","standard","1","35","HP","2","445.457","447.459","447.846","2.389","0.387","3","105",""
"36","R_RKYFzLUnTCzrshr","standard","1","36","HP","6","448.848","454.849","455.271","6.423","0.422","3","108",""
"37","R_RKYFzLUnTCzrshr","standard","1","37","HP","20","456.275","476.277","476.651","20.376","0.374","3","111",""
"38","R_RKYFzLUnTCzrshr","standard","1","38","HP","10","477.653","487.654","488.045","10.392","0.391","3","114",""
"39","R_RKYFzLUnTCzrshr","standard","1","39","HP","12","489.046","501.047","501.47","12.424","0.423","3","117",""
"40","R_RKYFzLUnTCzrshr","standard","1","40","HP","10","502.472","512.473","512.857","10.385","0.384","3","120",""
"41","R_RKYFzLUnTCzrshr","standard","1","41","HP","6","513.859","519.86","520.207","6.348","0.347","3","123",""
"42","R_RKYFzLUnTCzrshr","standard","1","42","HP","8","521.209","529.211","529.546","8.337","0.335","3","126",""
"43","R_RKYFzLUnTCzrshr","standard","1","43","HP","6","530.548","536.55","536.92","6.372","0.37","3","129",""
"44","R_RKYFzLUnTCzrshr","standard","1","44","HP","18","537.922","555.922","556.362","18.44","0.44","3","132",""
"45","R_RKYFzLUnTCzrshr","standard","1","45","HP","12","557.364","569.366","569.749","12.385","0.383","3","135",""
"46","R_RKYFzLUnTCzrshr","standard","1","46","HP","10","570.75","580.751","581.145","10.395","0.394","3","138",""
"47","R_RKYFzLUnTCzrshr","standard","1","47","HP","8","582.147","590.149","590.586","8.439","0.437","3","141",""
"48","R_RKYFzLUnTCzrshr","standard","1","48","HP","10","591.588","601.589","602.029","10.441","0.44","3","144",""
"49","R_RKYFzLUnTCzrshr","standard","1","49","HP","16","603.032","619.033","619.594","16.562","0.561","3","147",""
"50","R_RKYFzLUnTCzrshr","standard","1","50","HP","8","620.597","628.599","629.009","8.412","0.41","3","150",""
"51","R_RKYFzLUnTCzrshr","standard","1","51","HP","8","630.024","638.025","638.415","8.391","0.39","3","153",""
"52","R_RKYFzLUnTCzrshr","standard","1","52","HP","20","639.416","659.417","659.852","20.436","0.435","3","156",""
"53","R_RKYFzLUnTCzrshr","standard","1","53","HP","12","660.853","672.855","673.268","12.415","0.413","3","159",""
"54","R_RKYFzLUnTCzrshr","standard","1","54","HP","8","674.271","682.274","682.723","8.452","0.449","3","162",""
"55","R_RKYFzLUnTCzrshr","standard","1","55","HP","12","683.725","695.727","696.212","12.487","0.485","3","165",""
"56","R_RKYFzLUnTCzrshr","standard","1","56","HP","12","697.214","709.215","709.631","12.417","0.416","3","168",""
"57","R_RKYFzLUnTCzrshr","standard","1","57","HP","20","710.633","730.635","731.046","20.413","0.411","3","171",""
"58","R_RKYFzLUnTCzrshr","standard","1","58","HP","2","732.047","734.049","734.472","2.425","0.423","3","174",""
"59","R_RKYFzLUnTCzrshr","standard","1","59","HP","18","735.473","753.475","753.94","18.467","0.465","3","177",""
"60","R_RKYFzLUnTCzrshr","standard","1","60","HP","4","754.944","758.946","759.371","4.427","0.425","3","180",""
"61","R_RKYFzLUnTCzrshr","standard","1","61","HP","20","760.374","780.376","780.758","20.384","0.382","3","183",""
"62","R_RKYFzLUnTCzrshr","standard","1","62","HP","14","781.761","795.762","796.182","14.421","0.42","3","186",""
"63","R_RKYFzLUnTCzrshr","standard","1","63","HP","20","797.184","817.185","817.681","20.497","0.496","3","189",""
"64","R_RKYFzLUnTCzrshr","standard","1","64","HP","6","818.683","824.684","825.137","6.454","0.453","3","192",""
"65","R_RKYFzLUnTCzrshr","standard","1","65","HP","4","826.139","830.141","NA","5.006","NA","0","192",""
"66","R_RKYFzLUnTCzrshr","standard","1","66","HP","16","832.146","848.146","848.511","16.365","0.365","3","195",""
"67","R_RKYFzLUnTCzrshr","standard","1","67","HP","12","849.513","861.514","861.941","12.428","0.427","3","198",""
"68","R_RKYFzLUnTCzrshr","standard","1","68","HP","6","862.942","868.943","869.665","6.723","0.722","3","201",""
"69","R_RKYFzLUnTCzrshr","standard","1","69","HP","2","870.668","872.669","873.097","2.429","0.428","3","204",""
"70","R_RKYFzLUnTCzrshr","standard","1","70","HP","6","874.1","880.101","880.442","6.342","0.341","3","207",""
"71","R_RKYFzLUnTCzrshr","standard","1","71","HP","16","881.444","897.445","897.809","16.365","0.364","3","210",""
"72","R_RKYFzLUnTCzrshr","standard","2","1","LP","19.8235243429556","0","NaN","17.636","17.636","NaN","0","210",NA
"73","R_RKYFzLUnTCzrshr","standard","2","2","LP","13.0392072382594","18.639","NaN","23.279","4.64","NaN","0","210",NA
"74","R_RKYFzLUnTCzrshr","standard","2","3","LP","19.8235243429556","24.281","NaN","28.666","4.385","NaN","0","210",NA
"75","R_RKYFzLUnTCzrshr","standard","2","4","LP","19.8235243429556","29.667","NaN","34.294","4.627","NaN","0","210",NA
"76","R_RKYFzLUnTCzrshr","standard","2","5","LP","2.15079707022835","35.295","37.448","37.927","2.632","0.479","3","213",NA
"77","R_RKYFzLUnTCzrshr","standard","2","6","LP","30","38.929","NaN","43.056","4.127","NaN","0","213",NA
"78","R_RKYFzLUnTCzrshr","standard","2","7","LP","0.264713485566566","44.058","44.323","44.968","0.91","0.645","3","216",NA
"79","R_RKYFzLUnTCzrshr","standard","2","8","LP","0.264713485566566","45.97","46.235","46.651","0.681","0.416","3","219",NA
"80","R_RKYFzLUnTCzrshr","standard","2","9","LP","0.264713485566566","47.653","47.919","48.355","0.702","0.436","3","222",NA
"81","R_RKYFzLUnTCzrshr","standard","2","10","LP","5.5010771219302","49.356","NaN","53.853","4.497","NaN","0","222",NA
"82","R_RKYFzLUnTCzrshr","standard","2","11","LP","19.8235243429556","54.854","NaN","59.243","4.389","NaN","0","222",NA
"83","R_RKYFzLUnTCzrshr","standard","2","12","LP","0.264713485566566","60.246","60.512","60.925","0.679","0.413","3","225",NA
"84","R_RKYFzLUnTCzrshr","standard","2","13","LP","8.51632916846187","61.926","NaN","66.159","4.233","NaN","0","225",NA
"85","R_RKYFzLUnTCzrshr","standard","2","14","LP","8.51632916846187","67.161","NaN","70.058","2.897","NaN","0","225",NA
"86","R_RKYFzLUnTCzrshr","standard","2","15","LP","13.0392072382594","71.059","NaN","74.495","3.436","NaN","0","225",NA
"87","R_RKYFzLUnTCzrshr","standard","2","16","LP","8.51632916846187","75.497","NaN","79.036","3.539","NaN","0","225",NA
"88","R_RKYFzLUnTCzrshr","standard","2","17","LP","2.15079707022835","80.037","82.189","82.589","2.552","0.4","3","228",NA
"89","R_RKYFzLUnTCzrshr","standard","2","18","LP","1.25738905644119","83.591","84.849","85.348","1.757","0.499","3","231",NA
"90","R_RKYFzLUnTCzrshr","standard","2","19","LP","0.264713485566566","86.349","86.615","87.135","0.786","0.52","3","234",NA
"91","R_RKYFzLUnTCzrshr","standard","2","20","LP","8.51632916846187","88.137","NaN","90.924","2.787","NaN","0","234",NA
"92","R_RKYFzLUnTCzrshr","standard","2","21","LP","3.49090909090909","91.925","NaN","94.975","3.05","NaN","0","234",NA
"93","R_RKYFzLUnTCzrshr","standard","2","22","LP","0.661783713916415","95.976","96.639","97.129","1.153","0.49","3","237",NA
"94","R_RKYFzLUnTCzrshr","standard","2","23","LP","19.8235243429556","98.131","NaN","100.756","2.625","NaN","0","237",NA
"95","R_RKYFzLUnTCzrshr","standard","2","24","LP","1.25738905644119","101.758","103.017","103.528","1.77","0.511","3","240",NA
"96","R_RKYFzLUnTCzrshr","standard","2","25","LP","2.15079707022835","104.529","106.681","107.019","2.49","0.338","3","243",NA
"97","R_RKYFzLUnTCzrshr","standard","2","26","LP","5.5010771219302","108.02","NaN","110.739","2.719","NaN","0","243",NA
"98","R_RKYFzLUnTCzrshr","standard","2","27","LP","8.51632916846187","111.741","NaN","116.081","4.34","NaN","0","243",NA
"99","R_RKYFzLUnTCzrshr","standard","2","28","LP","0.264713485566566","117.082","117.347","117.891","0.809","0.544","3","246",NA
"100","R_RKYFzLUnTCzrshr","standard","2","29","LP","1.25738905644119","118.893","120.152","120.657","1.764","0.505","3","249",NA
"101","R_RKYFzLUnTCzrshr","standard","2","30","LP","5.5010771219302","121.66","NaN","123.905","2.245","NaN","0","249",NA
"102","R_RKYFzLUnTCzrshr","standard","2","31","LP","8.51632916846187","124.906","NaN","127.197","2.291","NaN","0","249",NA
"103","R_RKYFzLUnTCzrshr","standard","2","32","LP","13.0392072382594","128.199","NaN","130.543","2.344","NaN","0","249",NA
"104","R_RKYFzLUnTCzrshr","standard","2","33","LP","1.25738905644119","131.545","132.809","133.276","1.731","0.467","3","252",NA
"105","R_RKYFzLUnTCzrshr","standard","2","34","LP","3.49090909090909","134.278","NaN","136.672","2.394","NaN","0","252",NA
"106","R_RKYFzLUnTCzrshr","standard","2","35","LP","30","137.674","NaN","139.866","2.192","NaN","0","252",NA
"107","R_RKYFzLUnTCzrshr","standard","2","36","LP","1.25738905644119","140.868","142.128","142.679","1.811","0.551","3","255",NA
"108","R_RKYFzLUnTCzrshr","standard","2","37","LP","13.0392072382594","143.681","NaN","146.048","2.367","NaN","0","255",NA
"109","R_RKYFzLUnTCzrshr","standard","2","38","LP","0.264713485566566","147.049","147.314","147.712","0.663","0.398","3","258",NA
"110","R_RKYFzLUnTCzrshr","standard","2","39","LP","3.49090909090909","148.713","NaN","151.148","2.435","NaN","0","258",NA
"111","R_RKYFzLUnTCzrshr","standard","2","40","LP","3.49090909090909","152.149","NaN","154.531","2.382","NaN","0","258",NA
"112","R_RKYFzLUnTCzrshr","standard","2","41","LP","13.0392072382594","155.532","NaN","158.052","2.52","NaN","0","258",NA
"113","R_RKYFzLUnTCzrshr","standard","2","42","LP","3.49090909090909","159.053","NaN","161.321","2.268","NaN","0","258",NA
"114","R_RKYFzLUnTCzrshr","standard","2","43","LP","13.0392072382594","162.322","NaN","165.369","3.047","NaN","0","258",NA
"115","R_RKYFzLUnTCzrshr","standard","2","44","LP","19.8235243429556","166.372","NaN","169.964","3.592","NaN","0","258",NA
"116","R_RKYFzLUnTCzrshr","standard","2","45","LP","3.49090909090909","170.965","NaN","173.977","3.012","NaN","0","258",NA
"117","R_RKYFzLUnTCzrshr","standard","2","46","LP","30","174.978","NaN","178.039","3.061","NaN","0","258",NA
"118","R_RKYFzLUnTCzrshr","standard","2","47","LP","13.0392072382594","179.042","NaN","182.618","3.576","NaN","0","258",NA
"119","R_RKYFzLUnTCzrshr","standard","2","48","LP","3.49090909090909","183.619","187.11","187.516","3.897","0.406","3","261",NA
"120","R_RKYFzLUnTCzrshr","standard","2","49","LP","2.15079707022835","188.516","190.667","191.054","2.538","0.387","3","264",NA
"121","R_RKYFzLUnTCzrshr","standard","2","50","LP","1.25738905644119","192.055","193.313","193.726","1.671","0.413","3","267",NA
"122","R_RKYFzLUnTCzrshr","standard","2","51","LP","30","194.728","NaN","199.159","4.431","NaN","0","267",NA
"123","R_RKYFzLUnTCzrshr","standard","2","52","LP","3.49090909090909","200.16","203.651","204.047","3.887","0.396","3","270",NA
"124","R_RKYFzLUnTCzrshr","standard","2","53","LP","3.49090909090909","205.048","208.54","208.918","3.87","0.378","3","273",NA
"125","R_RKYFzLUnTCzrshr","standard","2","54","LP","5.5010771219302","209.918","NaN","213.92","4.002","NaN","0","273",NA
"126","R_RKYFzLUnTCzrshr","standard","2","55","LP","19.8235243429556","214.922","NaN","219.128","4.206","NaN","0","273",NA
"127","R_RKYFzLUnTCzrshr","standard","2","56","LP","8.51632916846187","220.129","NaN","224.43","4.301","NaN","0","273",NA
"128","R_RKYFzLUnTCzrshr","standard","2","57","LP","30","225.432","NaN","229.992","4.56","NaN","0","273",NA
"129","R_RKYFzLUnTCzrshr","standard","2","58","LP","0.264713485566566","230.994","231.259","231.747","0.753","0.488","3","276",NA
"130","R_RKYFzLUnTCzrshr","standard","2","59","LP","13.0392072382594","232.748","NaN","234.975","2.227","NaN","0","276",NA
"131","R_RKYFzLUnTCzrshr","standard","2","60","LP","2.15079707022835","235.976","NaN","238.099","2.123","NaN","0","276",NA
"132","R_RKYFzLUnTCzrshr","standard","2","61","LP","0.661783713916415","239.101","239.764","240.162","1.061","0.398","3","279",NA
"133","R_RKYFzLUnTCzrshr","standard","2","62","LP","5.5010771219302","241.164","NaN","243.264","2.1","NaN","0","279",NA
"134","R_RKYFzLUnTCzrshr","standard","2","63","LP","30","244.266","NaN","246.619","2.353","NaN","0","279",NA
"135","R_RKYFzLUnTCzrshr","standard","2","64","LP","30","247.62","NaN","250.097","2.477","NaN","0","279",NA
"136","R_RKYFzLUnTCzrshr","standard","2","65","LP","0.661783713916415","251.098","251.761","252.171","1.073","0.41","3","282",NA
"137","R_RKYFzLUnTCzrshr","standard","2","66","LP","3.49090909090909","253.173","NaN","255.331","2.158","NaN","0","282",NA
"138","R_RKYFzLUnTCzrshr","standard","2","67","LP","5.5010771219302","256.333","NaN","258.63","2.297","NaN","0","282",NA
"139","R_RKYFzLUnTCzrshr","standard","2","68","LP","8.51632916846187","259.631","NaN","262.202","2.571","NaN","0","282",NA
"140","R_RKYFzLUnTCzrshr","standard","2","69","LP","19.8235243429556","263.207","NaN","266.11","2.903","NaN","0","282",NA
"141","R_RKYFzLUnTCzrshr","standard","2","70","LP","1.25738905644119","267.112","268.37","268.816","1.704","0.446","3","285",NA
"142","R_RKYFzLUnTCzrshr","standard","2","71","LP","1.25738905644119","269.817","271.075","271.459","1.642","0.384","3","288",NA
"143","R_RKYFzLUnTCzrshr","standard","2","72","LP","2.15079707022835","272.46","274.612","274.943","2.483","0.331","3","291",NA
"144","R_RKYFzLUnTCzrshr","standard","2","73","LP","30","275.946","NaN","278.25","2.304","NaN","0","291",NA
"145","R_RKYFzLUnTCzrshr","standard","2","74","LP","0.264713485566566","279.252","279.518","279.967","0.715","0.449","3","294",NA
"146","R_RKYFzLUnTCzrshr","standard","2","75","LP","3.49090909090909","280.969","NaN","283.344","2.375","NaN","0","294",NA
"147","R_RKYFzLUnTCzrshr","standard","2","76","LP","19.8235243429556","284.345","NaN","286.759","2.414","NaN","0","294",NA
"148","R_RKYFzLUnTCzrshr","standard","2","77","LP","2.15079707022835","287.761","289.912","290.048","2.287","0.136","3","297",NA
"149","R_RKYFzLUnTCzrshr","standard","2","78","LP","1.25738905644119","291.049","292.308","292.675","1.626","0.367","3","300",NA
"150","R_RKYFzLUnTCzrshr","standard","2","79","LP","13.0392072382594","293.676","NaN","295.046","1.37","NaN","0","300",NA
"151","R_RKYFzLUnTCzrshr","standard","2","80","LP","8.51632916846187","296.048","NaN","297.262","1.214","NaN","0","300",NA
"152","R_RKYFzLUnTCzrshr","standard","2","81","LP","0.661783713916415","298.264","298.927","299.307","1.043","0.38","3","303",NA
"153","R_RKYFzLUnTCzrshr","standard","2","82","LP","13.0392072382594","300.308","NaN","301.393","1.085","NaN","0","303",NA
"154","R_RKYFzLUnTCzrshr","standard","2","83","LP","0.264713485566566","302.394","302.659","303.208","0.814","0.549","3","306",NA
"155","R_RKYFzLUnTCzrshr","standard","2","84","LP","30","304.21","NaN","305.34","1.13","NaN","0","306",NA
"156","R_RKYFzLUnTCzrshr","standard","2","85","LP","8.51632916846187","306.341","NaN","307.463","1.122","NaN","0","306",NA
"157","R_RKYFzLUnTCzrshr","standard","2","86","LP","5.5010771219302","308.466","NaN","309.378","0.912","NaN","0","306",NA
"158","R_RKYFzLUnTCzrshr","standard","2","87","LP","0.264713485566566","310.379","310.645","311.127","0.748","0.482","3","309",NA
"159","R_RKYFzLUnTCzrshr","standard","2","88","LP","8.51632916846187","312.128","NaN","313.214","1.086","NaN","0","309",NA
"160","R_RKYFzLUnTCzrshr","standard","2","89","LP","3.49090909090909","314.215","NaN","315.234","1.019","NaN","0","309",NA
"161","R_RKYFzLUnTCzrshr","standard","2","90","LP","8.51632916846187","316.235","NaN","317.324","1.089","NaN","0","309",NA
"162","R_RKYFzLUnTCzrshr","standard","2","91","LP","30","318.325","NaN","319.273","0.948","NaN","0","309",NA
"163","R_RKYFzLUnTCzrshr","standard","2","92","LP","0.264713485566566","320.274","320.54","320.953","0.679","0.413","3","312",NA
"164","R_RKYFzLUnTCzrshr","standard","2","93","LP","19.8235243429556","321.955","NaN","323.002","1.047","NaN","0","312",NA
"165","R_RKYFzLUnTCzrshr","standard","2","94","LP","0.264713485566566","324.007","324.273","324.682","0.675","0.409","3","315",NA
"166","R_RKYFzLUnTCzrshr","standard","2","95","LP","8.51632916846187","325.684","NaN","326.714","1.03","NaN","0","315",NA
"167","R_RKYFzLUnTCzrshr","standard","2","96","LP","8.51632916846187","327.715","NaN","328.841","1.126","NaN","0","315",NA
"168","R_RKYFzLUnTCzrshr","standard","2","97","LP","1.25738905644119","329.849","331.107","331.533","1.684","0.426","3","318",NA
"169","R_RKYFzLUnTCzrshr","standard","2","98","LP","5.5010771219302","332.535","NaN","334.85","2.315","NaN","0","318",NA
"170","R_RKYFzLUnTCzrshr","standard","2","99","LP","1.25738905644119","335.852","337.113","337.547","1.695","0.434","3","321",NA
"171","R_RKYFzLUnTCzrshr","standard","2","100","LP","19.8235243429556","338.549","NaN","340.703","2.154","NaN","0","321",NA
"172","R_RKYFzLUnTCzrshr","standard","2","101","LP","8.51632916846187","341.705","NaN","343.959","2.254","NaN","0","321",NA
"173","R_RKYFzLUnTCzrshr","standard","2","102","LP","13.0392072382594","344.961","NaN","347.216","2.255","NaN","0","321",NA
"174","R_RKYFzLUnTCzrshr","standard","2","103","LP","13.0392072382594","348.217","NaN","350.592","2.375","NaN","0","321",NA
"175","R_RKYFzLUnTCzrshr","standard","2","104","LP","8.51632916846187","351.594","NaN","354.068","2.474","NaN","0","321",NA
"176","R_RKYFzLUnTCzrshr","standard","2","105","LP","8.51632916846187","355.07","NaN","357.791","2.721","NaN","0","321",NA
"177","R_RKYFzLUnTCzrshr","standard","2","106","LP","8.51632916846187","358.792","NaN","361.463","2.671","NaN","0","321",NA
"178","R_RKYFzLUnTCzrshr","standard","2","107","LP","19.8235243429556","362.465","NaN","365.08","2.615","NaN","0","321",NA
"179","R_RKYFzLUnTCzrshr","standard","2","108","LP","30","366.084","NaN","368.692","2.608","NaN","0","321",NA
"180","R_RKYFzLUnTCzrshr","standard","2","109","LP","5.5010771219302","369.694","NaN","372.273","2.579","NaN","0","321",NA
"181","R_RKYFzLUnTCzrshr","standard","2","110","LP","19.8235243429556","373.275","NaN","375.726","2.451","NaN","0","321",NA
"182","R_RKYFzLUnTCzrshr","standard","2","111","LP","8.51632916846187","376.727","NaN","379.18","2.453","NaN","0","321",NA
"183","R_RKYFzLUnTCzrshr","standard","2","112","LP","5.5010771219302","380.182","NaN","382.472","2.29","NaN","0","321",NA
"184","R_RKYFzLUnTCzrshr","standard","2","113","LP","5.5010771219302","383.474","NaN","385.864","2.39","NaN","0","321",NA
"185","R_RKYFzLUnTCzrshr","standard","2","114","LP","0.264713485566566","386.866","387.131","387.614","0.748","0.483","3","324",NA
"186","R_RKYFzLUnTCzrshr","standard","2","115","LP","0.661783713916415","388.616","389.278","389.651","1.035","0.373","3","327",NA
"187","R_RKYFzLUnTCzrshr","standard","2","116","LP","5.5010771219302","390.652","NaN","393.044","2.392","NaN","0","327",NA
"188","R_RKYFzLUnTCzrshr","standard","2","117","LP","30","394.046","NaN","396.452","2.406","NaN","0","327",NA
"189","R_RKYFzLUnTCzrshr","standard","2","118","LP","30","397.454","NaN","400.159","2.705","NaN","0","327",NA
"190","R_RKYFzLUnTCzrshr","standard","2","119","LP","5.5010771219302","401.16","NaN","405.561","4.401","NaN","0","327",NA
"191","R_RKYFzLUnTCzrshr","standard","2","120","LP","30","406.562","NaN","410.937","4.375","NaN","0","327",NA
"192","R_RKYFzLUnTCzrshr","standard","2","121","LP","1.25738905644119","411.938","413.196","413.675","1.737","0.479","3","330",NA
"193","R_RKYFzLUnTCzrshr","standard","2","122","LP","0.661783713916415","414.677","415.339","415.71","1.033","0.371","3","333",NA
"194","R_RKYFzLUnTCzrshr","standard","2","123","LP","13.0392072382594","416.711","429.751","430.169","13.458","0.418","3","336",NA
"195","R_RKYFzLUnTCzrshr","standard","2","124","LP","0.264713485566566","431.171","431.437","431.914","0.743","0.477","3","339",NA
"196","R_RKYFzLUnTCzrshr","standard","2","125","LP","2.15079707022835","432.923","NaN","433.846","0.923","NaN","0","339",NA
"197","R_RKYFzLUnTCzrshr","standard","2","126","LP","13.0392072382594","434.851","NaN","435.942","1.091","NaN","0","339",NA
"198","R_RKYFzLUnTCzrshr","standard","2","127","LP","19.8235243429556","436.943","NaN","437.675","0.732","NaN","0","339",NA
"199","R_RKYFzLUnTCzrshr","standard","2","128","LP","0.264713485566566","438.677","438.943","439.373","0.696","0.43","3","342",NA
"200","R_RKYFzLUnTCzrshr","standard","2","129","LP","1.25738905644119","440.374","NaN","441.153","0.779","NaN","0","342",NA
"201","R_RKYFzLUnTCzrshr","standard","2","130","LP","0.264713485566566","442.155","442.42","442.848","0.693","0.428","3","345",NA
"202","R_RKYFzLUnTCzrshr","standard","2","131","LP","1.25738905644119","443.85","NaN","444.519","0.669","NaN","0","345",NA
"203","R_RKYFzLUnTCzrshr","standard","2","132","LP","8.51632916846187","445.52","NaN","446.361","0.841","NaN","0","345",NA
"204","R_RKYFzLUnTCzrshr","standard","2","133","LP","0.661783713916415","447.364","448.026","448.143","0.779","0.117","3","348",NA
"205","R_RKYFzLUnTCzrshr","standard","2","134","LP","0.264713485566566","449.144","449.41","449.822","0.678","0.412","3","351",NA
"206","R_RKYFzLUnTCzrshr","standard","2","135","LP","8.51632916846187","450.824","NaN","451.577","0.753","NaN","0","351",NA
"207","R_RKYFzLUnTCzrshr","standard","2","136","LP","3.49090909090909","452.578","NaN","453.293","0.715","NaN","0","351",NA
"208","R_RKYFzLUnTCzrshr","standard","2","137","LP","2.15079707022835","454.295","NaN","454.904","0.609","NaN","0","351",NA
"209","R_RKYFzLUnTCzrshr","standard","2","138","LP","5.5010771219302","455.909","461.411","461.87","5.961","0.459","3","354",NA
"210","R_RKYFzLUnTCzrshr","standard","2","139","LP","5.5010771219302","462.88","468.384","468.663","5.783","0.279","3","357",NA
"211","R_RKYFzLUnTCzrshr","standard","2","140","LP","0.264713485566566","469.665","469.932","470.432","0.767","0.5","3","360",NA
"212","R_RKYFzLUnTCzrshr","standard","2","141","LP","0.661783713916415","471.434","472.097","472.254","0.82","0.157","3","363",NA
"213","R_RKYFzLUnTCzrshr","standard","2","142","LP","30","473.255","NaN","474.102","0.847","NaN","0","363",NA
"214","R_RKYFzLUnTCzrshr","standard","2","143","LP","13.0392072382594","475.106","NaN","475.975","0.869","NaN","0","363",NA
"215","R_RKYFzLUnTCzrshr","standard","2","144","LP","30","476.978","NaN","477.751","0.773","NaN","0","363",NA
"216","R_RKYFzLUnTCzrshr","standard","2","145","LP","13.0392072382594","478.752","NaN","479.558","0.806","NaN","0","363",NA
"217","R_RKYFzLUnTCzrshr","standard","2","146","LP","13.0392072382594","480.559","493.599","493.971","13.412","0.372","3","366",NA
"218","R_RKYFzLUnTCzrshr","standard","2","147","LP","3.49090909090909","494.972","498.463","498.871","3.899","0.408","3","369",NA
"219","R_RKYFzLUnTCzrshr","standard","2","148","LP","0.661783713916415","499.872","500.534","500.873","1.001","0.339","3","372",NA
"220","R_RKYFzLUnTCzrshr","standard","2","149","LP","0.661783713916415","501.875","502.538","502.889","1.014","0.351","3","375",NA
"221","R_RKYFzLUnTCzrshr","standard","2","150","LP","0.264713485566566","503.892","504.157","504.524","0.632","0.367","3","378",NA
"222","R_RKYFzLUnTCzrshr","standard","2","151","LP","30","505.525","NaN","507.126","1.601","NaN","0","378",NA
"223","R_RKYFzLUnTCzrshr","standard","2","152","LP","0.661783713916415","508.129","508.791","509.031","0.902","0.24","3","381",NA
"224","R_RKYFzLUnTCzrshr","standard","2","153","LP","5.5010771219302","510.033","NaN","510.906","0.873","NaN","0","381",NA
"225","R_RKYFzLUnTCzrshr","standard","2","154","LP","5.5010771219302","511.907","NaN","512.703","0.796","NaN","0","381",NA
"226","R_RKYFzLUnTCzrshr","standard","2","155","LP","5.5010771219302","513.707","NaN","514.509","0.802","NaN","0","381",NA
"227","R_RKYFzLUnTCzrshr","standard","2","156","LP","1.25738905644119","515.51","516.769","517.238","1.728","0.469","3","384",NA
"228","R_RKYFzLUnTCzrshr","standard","2","157","LP","3.49090909090909","518.24","NaN","519.643","1.403","NaN","0","384",NA
"229","R_RKYFzLUnTCzrshr","standard","2","158","LP","1.25738905644119","520.645","521.906","522.013","1.368","0.107","3","387",NA
"230","R_RKYFzLUnTCzrshr","standard","2","159","LP","3.49090909090909","523.015","NaN","524.204","1.189","NaN","0","387",NA
"231","R_RKYFzLUnTCzrshr","standard","2","160","LP","3.49090909090909","525.207","NaN","526.448","1.241","NaN","0","387",NA
"232","R_RKYFzLUnTCzrshr","standard","2","161","LP","0.661783713916415","527.45","528.112","528.51","1.06","0.398","3","390",NA
"233","R_RKYFzLUnTCzrshr","standard","2","162","LP","30","529.512","NaN","530.766","1.254","NaN","0","390",NA
"234","R_RKYFzLUnTCzrshr","standard","2","163","LP","1.25738905644119","531.769","NaN","532.773","1.004","NaN","0","390",NA
"235","R_RKYFzLUnTCzrshr","standard","2","164","LP","8.51632916846187","533.774","NaN","535.011","1.237","NaN","0","390",NA
"236","R_RKYFzLUnTCzrshr","standard","2","165","LP","2.15079707022835","536.012","NaN","537.079","1.067","NaN","0","390",NA
"237","R_RKYFzLUnTCzrshr","standard","2","166","LP","0.661783713916415","538.081","538.744","539.119","1.038","0.375","3","393",NA
"238","R_RKYFzLUnTCzrshr","standard","2","167","LP","0.661783713916415","540.12","540.782","541.177","1.057","0.395","3","396",NA
"239","R_RKYFzLUnTCzrshr","standard","2","168","LP","13.0392072382594","542.179","NaN","543.102","0.923","NaN","0","396",NA
"240","R_RKYFzLUnTCzrshr","standard","2","169","LP","8.51632916846187","544.106","NaN","545.314","1.208","NaN","0","396",NA
"241","R_RKYFzLUnTCzrshr","standard","2","170","LP","30","546.315","NaN","547.305","0.99","NaN","0","396",NA
"242","R_RKYFzLUnTCzrshr","standard","2","171","LP","13.0392072382594","548.308","NaN","549.395","1.087","NaN","0","396",NA
"243","R_RKYFzLUnTCzrshr","standard","2","172","LP","8.51632916846187","550.397","558.914","559.318","8.921","0.404","3","399",NA
"244","R_RKYFzLUnTCzrshr","standard","2","173","LP","19.8235243429556","560.319","NaN","568.912","8.593","NaN","0","399",NA
"245","R_RKYFzLUnTCzrshr","standard","2","174","LP","8.51632916846187","569.913","578.431","578.596","8.683","0.165","3","402",NA
"246","R_RKYFzLUnTCzrshr","standard","2","175","LP","0.661783713916415","579.598","580.26","580.77","1.172","0.51","3","405",NA
"247","R_RKYFzLUnTCzrshr","standard","2","176","LP","0.661783713916415","581.773","582.437","582.78","1.007","0.343","3","408",NA
"248","R_RKYFzLUnTCzrshr","standard","2","177","LP","30","583.782","NaN","584.793","1.011","NaN","0","408",NA
"249","R_RKYFzLUnTCzrshr","standard","2","178","LP","2.15079707022835","585.794","NaN","586.785","0.991","NaN","0","408",NA
"250","R_RKYFzLUnTCzrshr","standard","2","179","LP","19.8235243429556","587.786","NaN","588.733","0.947","NaN","0","408",NA
"251","R_RKYFzLUnTCzrshr","standard","2","180","LP","5.5010771219302","589.735","595.237","595.693","5.958","0.456","3","411",NA
"252","R_RKYFzLUnTCzrshr","standard","2","181","LP","30","596.695","NaN","597.495","0.8","NaN","0","411",NA
"253","R_RKYFzLUnTCzrshr","standard","2","182","LP","0.661783713916415","598.499","NaN","598.611","0.112","NaN","0","411",NA
"254","R_RKYFzLUnTCzrshr","standard","2","183","LP","30","599.614","NaN","599.629","0.015","NaN","0","411",NA
