"","subject_id","condition","n_block","n_trialIdx","f_timing_condition","n_scheduled_delay","n_trial_start_time","n_rewarded_time_fin","n_sell_time_fin","n_time_waited_fin","RT_fin","n_trial_earnings_fin","n_total_earnings_fin","keypress_times"
"1","R_sQZayl0EUqZsXg5","standard","1","1","HP","8","0","8.004","8.632","8.632","0.628","3","3",""
"2","R_sQZayl0EUqZsXg5","standard","1","2","HP","12","9.641","21.656","22.109","12.468","0.453","3","6",""
"3","R_sQZayl0EUqZsXg5","standard","1","3","HP","6","23.126","29.137","29.778","6.652","0.641","3","9",""
"4","R_sQZayl0EUqZsXg5","standard","1","4","HP","2","30.789","32.794","33.299","2.51","0.505","3","12",""
"5","R_sQZayl0EUqZsXg5","standard","1","5","HP","8","34.299","42.306","42.81","8.511","0.504","3","15",""
"6","R_sQZayl0EUqZsXg5","standard","1","6","HP","20","43.811","63.816","64.329","20.518","0.513","3","18",""
"7","R_sQZayl0EUqZsXg5","standard","1","7","HP","12","65.343","77.359","77.851","12.508","0.492","3","21",""
"8","R_sQZayl0EUqZsXg5","standard","1","8","HP","10","78.862","88.866","89.347","10.485","0.481","3","24",""
"9","R_sQZayl0EUqZsXg5","standard","1","9","HP","10","90.362","100.382","100.753","10.391","0.371","3","27",""
"10","R_sQZayl0EUqZsXg5","standard","1","10","HP","12","101.763","113.768","114.154","12.391","0.386","3","30",""
"11","R_sQZayl0EUqZsXg5","standard","1","11","HP","20","115.157","135.164","135.529","20.372","0.365","3","33",""
"12","R_sQZayl0EUqZsXg5","standard","1","12","HP","18","136.537","154.547","155.003","18.466","0.456","3","36",""
"13","R_sQZayl0EUqZsXg5","standard","1","13","HP","12","156.007","168.015","168.4","12.393","0.385","3","39",""
"14","R_sQZayl0EUqZsXg5","standard","1","14","HP","8","169.404","177.406","177.719","8.315","0.313","3","42",""
"15","R_sQZayl0EUqZsXg5","standard","1","15","HP","10","178.732","188.741","189.232","10.5","0.491","3","45",""
"16","R_sQZayl0EUqZsXg5","standard","1","16","HP","8","190.248","198.252","198.702","8.454","0.45","3","48",""
"17","R_sQZayl0EUqZsXg5","standard","1","17","HP","2","199.711","201.717","202.23","2.519","0.513","3","51",""
"18","R_sQZayl0EUqZsXg5","standard","1","18","HP","8","203.238","211.244","211.585","8.347","0.341","3","54",""
"19","R_sQZayl0EUqZsXg5","standard","1","19","HP","2","212.596","214.602","215.087","2.491","0.485","3","57",""
"20","R_sQZayl0EUqZsXg5","standard","1","20","HP","14","216.09","230.1","230.437","14.347","0.337","3","60",""
"21","R_sQZayl0EUqZsXg5","standard","1","21","HP","2","231.45","233.456","234.048","2.598","0.592","3","63",""
"22","R_sQZayl0EUqZsXg5","standard","1","22","HP","16","235.051","251.062","251.878","16.827","0.816","3","66",""
"23","R_sQZayl0EUqZsXg5","standard","1","23","HP","20","252.883","272.895","273.229","20.346","0.334","3","69",""
"24","R_sQZayl0EUqZsXg5","standard","1","24","HP","8","274.231","282.242","282.578","8.347","0.336","3","72",""
"25","R_sQZayl0EUqZsXg5","standard","1","25","HP","4","283.59","287.602","287.976","4.386","0.374","3","75",""
"26","R_sQZayl0EUqZsXg5","standard","1","26","HP","20","288.979","308.99","309.299","20.32","0.309","3","78",""
"27","R_sQZayl0EUqZsXg5","standard","1","27","HP","6","310.31","316.325","316.609","6.299","0.284","3","81",""
"28","R_sQZayl0EUqZsXg5","standard","1","28","HP","6","317.629","323.649","323.995","6.366","0.346","3","84",""
"29","R_sQZayl0EUqZsXg5","standard","1","29","HP","6","324.999","331.003","331.421","6.422","0.418","3","87",""
"30","R_sQZayl0EUqZsXg5","standard","1","30","HP","8","332.424","340.435","340.833","8.409","0.398","3","90",""
"31","R_sQZayl0EUqZsXg5","standard","1","31","HP","14","341.839","355.848","356.358","14.519","0.51","3","93",""
"32","R_sQZayl0EUqZsXg5","standard","1","32","HP","4","357.374","361.385","361.791","4.417","0.406","3","96",""
"33","R_sQZayl0EUqZsXg5","standard","1","33","HP","2","362.803","364.811","365.158","2.355","0.347","3","99",""
"34","R_sQZayl0EUqZsXg5","standard","1","34","HP","12","366.161","378.168","378.563","12.402","0.395","3","102",""
"35","R_sQZayl0EUqZsXg5","standard","1","35","HP","6","379.573","385.576","386.014","6.441","0.438","3","105",""
"36","R_sQZayl0EUqZsXg5","standard","1","36","HP","14","387.028","401.036","401.358","14.33","0.322","3","108",""
"37","R_sQZayl0EUqZsXg5","standard","1","37","HP","8","402.371","410.382","410.733","8.362","0.351","3","111",""
"38","R_sQZayl0EUqZsXg5","standard","1","38","HP","12","411.739","423.754","424.078","12.339","0.324","3","114",""
"39","R_sQZayl0EUqZsXg5","standard","1","39","HP","6","425.089","431.093","431.48","6.391","0.387","3","117",""
"40","R_sQZayl0EUqZsXg5","standard","1","40","HP","2","432.482","434.488","434.815","2.333","0.327","3","120",""
"41","R_sQZayl0EUqZsXg5","standard","1","41","HP","10","435.823","445.825","446.15","10.327","0.325","3","123",""
"42","R_sQZayl0EUqZsXg5","standard","1","42","HP","10","447.16","457.173","457.64","10.48","0.467","3","126",""
"43","R_sQZayl0EUqZsXg5","standard","1","43","HP","8","458.646","466.65","467.019","8.373","0.369","3","129",""
"44","R_sQZayl0EUqZsXg5","standard","1","44","HP","14","468.021","482.037","482.37","14.349","0.333","3","132",""
"45","R_sQZayl0EUqZsXg5","standard","1","45","HP","18","483.381","501.394","501.737","18.356","0.343","3","135",""
"46","R_sQZayl0EUqZsXg5","standard","1","46","HP","14","502.751","516.755","517.121","14.37","0.366","3","138",""
"47","R_sQZayl0EUqZsXg5","standard","1","47","HP","10","518.128","528.14","528.578","10.45","0.438","3","141",""
"48","R_sQZayl0EUqZsXg5","standard","1","48","HP","6","529.582","535.594","535.957","6.375","0.363","3","144",""
"49","R_sQZayl0EUqZsXg5","standard","1","49","HP","18","536.966","554.987","555.302","18.336","0.315","3","147",""
"50","R_sQZayl0EUqZsXg5","standard","1","50","HP","8","556.306","564.316","564.678","8.372","0.362","3","150",""
"51","R_sQZayl0EUqZsXg5","standard","1","51","HP","10","565.682","575.686","576.055","10.373","0.369","3","153",""
"52","R_sQZayl0EUqZsXg5","standard","1","52","HP","8","577.059","585.062","585.564","8.505","0.502","3","156",""
"53","R_sQZayl0EUqZsXg5","standard","1","53","HP","2","586.566","588.573","589.063","2.497","0.49","3","159",""
"54","R_sQZayl0EUqZsXg5","standard","1","54","HP","4","590.063","594.077","594.464","4.401","0.387","3","162",""
"55","R_sQZayl0EUqZsXg5","standard","1","55","HP","8","595.465","603.474","604.003","8.538","0.529","3","165",""
"56","R_sQZayl0EUqZsXg5","standard","1","56","HP","8","605.01","613.022","613.501","8.491","0.479","3","168",""
"57","R_sQZayl0EUqZsXg5","standard","1","57","HP","18","614.511","632.521","632.995","18.484","0.474","3","171",""
"58","R_sQZayl0EUqZsXg5","standard","1","58","HP","20","634.01","654.02","654.457","20.447","0.437","3","174",""
"59","R_sQZayl0EUqZsXg5","standard","1","59","HP","20","655.463","675.473","675.853","20.39","0.38","3","177",""
"60","R_sQZayl0EUqZsXg5","standard","1","60","HP","10","676.862","686.866","687.383","10.521","0.517","3","180",""
"61","R_sQZayl0EUqZsXg5","standard","1","61","HP","16","688.385","704.393","704.768","16.383","0.375","3","183",""
"62","R_sQZayl0EUqZsXg5","standard","1","62","HP","8","705.781","713.792","714.22","8.439","0.428","3","186",""
"63","R_sQZayl0EUqZsXg5","standard","1","63","HP","8","715.229","723.239","723.742","8.513","0.503","3","189",""
"64","R_sQZayl0EUqZsXg5","standard","1","64","HP","16","724.745","740.749","741.107","16.362","0.358","3","192",""
"65","R_sQZayl0EUqZsXg5","standard","1","65","HP","16","742.114","758.125","758.478","16.364","0.353","3","195",""
"66","R_sQZayl0EUqZsXg5","standard","1","66","HP","4","759.484","763.509","763.964","4.48","0.455","3","198",""
"67","R_sQZayl0EUqZsXg5","standard","1","67","HP","12","764.985","776.985","777.515","12.53","0.53","3","201",""
"68","R_sQZayl0EUqZsXg5","standard","1","68","HP","2","778.529","780.536","780.953","2.424","0.417","3","204",""
"69","R_sQZayl0EUqZsXg5","standard","1","69","HP","6","781.956","787.961","788.56","6.604","0.599","3","207",""
"70","R_sQZayl0EUqZsXg5","standard","1","70","HP","2","789.568","791.575","792.099","2.531","0.524","3","210",""
"71","R_sQZayl0EUqZsXg5","standard","1","71","HP","6","793.111","799.114","799.582","6.471","0.468","3","213",""
"72","R_sQZayl0EUqZsXg5","standard","1","72","HP","2","800.604","802.611","802.988","2.384","0.377","3","216",""
"73","R_sQZayl0EUqZsXg5","standard","1","73","HP","16","803.993","820.011","820.489","16.496","0.478","3","219",""
"74","R_sQZayl0EUqZsXg5","standard","1","74","HP","12","821.493","833.508","834.114","12.621","0.606","3","222",""
"75","R_sQZayl0EUqZsXg5","standard","1","75","HP","20","835.129","855.129","855.499","20.37","0.37","3","225",""
"76","R_sQZayl0EUqZsXg5","standard","1","76","HP","2","856.519","858.525","859.096","2.577","0.571","3","228",""
"77","R_sQZayl0EUqZsXg5","standard","1","77","HP","2","860.107","862.114","862.513","2.406","0.399","3","231",""
"78","R_sQZayl0EUqZsXg5","standard","1","78","HP","2","863.519","865.526","866.012","2.493","0.486","3","234",""
"79","R_sQZayl0EUqZsXg5","standard","1","79","HP","12","867.014","879.02","879.455","12.441","0.435","3","237",""
"80","R_sQZayl0EUqZsXg5","standard","2","1","LP","3.49090909090909","0","3.502","4.023","4.023","0.521","3","240",NA
"81","R_sQZayl0EUqZsXg5","standard","2","2","LP","19.8235243429556","5.029","NaN","16.597","11.568","NaN","0","240",NA
"82","R_sQZayl0EUqZsXg5","standard","2","3","LP","30","17.612","NaN","26.439","8.827","NaN","0","240",NA
"83","R_sQZayl0EUqZsXg5","standard","2","4","LP","30","27.444","NaN","37.016","9.572","NaN","0","240",NA
"84","R_sQZayl0EUqZsXg5","standard","2","5","LP","0.661783713916415","38.027","38.698","39.235","1.208","0.537","3","243",NA
"85","R_sQZayl0EUqZsXg5","standard","2","6","LP","19.8235243429556","40.256","NaN","49.16","8.904","NaN","0","243",NA
"86","R_sQZayl0EUqZsXg5","standard","2","7","LP","2.15079707022835","50.161","52.321","52.8","2.639","0.479","3","246",NA
"87","R_sQZayl0EUqZsXg5","standard","2","8","LP","0.264713485566566","53.81","54.097","54.664","0.854","0.567","3","249",NA
"88","R_sQZayl0EUqZsXg5","standard","2","9","LP","3.49090909090909","55.679","59.174","59.585","3.906","0.411","3","252",NA
"89","R_sQZayl0EUqZsXg5","standard","2","10","LP","5.5010771219302","60.589","66.094","66.512","5.923","0.418","3","255",NA
"90","R_sQZayl0EUqZsXg5","standard","2","11","LP","1.25738905644119","67.522","68.79","69.188","1.666","0.398","3","258",NA
"91","R_sQZayl0EUqZsXg5","standard","2","12","LP","2.15079707022835","70.193","72.359","72.744","2.551","0.385","3","261",NA
"92","R_sQZayl0EUqZsXg5","standard","2","13","LP","5.5010771219302","73.764","79.279","79.66","5.896","0.381","3","264",NA
"93","R_sQZayl0EUqZsXg5","standard","2","14","LP","13.0392072382594","80.661","NaN","88.516","7.855","NaN","0","264",NA
"94","R_sQZayl0EUqZsXg5","standard","2","15","LP","5.5010771219302","89.526","95.029","95.402","5.876","0.373","3","267",NA
"95","R_sQZayl0EUqZsXg5","standard","2","16","LP","1.25738905644119","96.412","97.685","98.062","1.65","0.377","3","270",NA
"96","R_sQZayl0EUqZsXg5","standard","2","17","LP","2.15079707022835","99.072","101.225","101.61","2.538","0.385","3","273",NA
"97","R_sQZayl0EUqZsXg5","standard","2","18","LP","30","102.614","NaN","110.524","7.91","NaN","0","273",NA
"98","R_sQZayl0EUqZsXg5","standard","2","19","LP","3.49090909090909","111.537","115.036","115.361","3.824","0.325","3","276",NA
"99","R_sQZayl0EUqZsXg5","standard","2","20","LP","3.49090909090909","116.37","119.865","120.216","3.846","0.351","3","279",NA
"100","R_sQZayl0EUqZsXg5","standard","2","21","LP","19.8235243429556","121.222","NaN","129.716","8.494","NaN","0","279",NA
"101","R_sQZayl0EUqZsXg5","standard","2","22","LP","2.15079707022835","130.736","132.899","133.232","2.496","0.333","3","282",NA
"102","R_sQZayl0EUqZsXg5","standard","2","23","LP","5.5010771219302","134.241","139.748","140.142","5.901","0.394","3","285",NA
"103","R_sQZayl0EUqZsXg5","standard","2","24","LP","30","141.153","NaN","149.905","8.752","NaN","0","285",NA
"104","R_sQZayl0EUqZsXg5","standard","2","25","LP","13.0392072382594","150.913","NaN","158.817","7.904","NaN","0","285",NA
"105","R_sQZayl0EUqZsXg5","standard","2","26","LP","0.661783713916415","159.826","160.497","160.963","1.137","0.466","3","288",NA
"106","R_sQZayl0EUqZsXg5","standard","2","27","LP","1.25738905644119","161.964","163.236","163.629","1.665","0.393","3","291",NA
"107","R_sQZayl0EUqZsXg5","standard","2","28","LP","30","164.641","NaN","172.201","7.56","NaN","0","291",NA
"108","R_sQZayl0EUqZsXg5","standard","2","29","LP","19.8235243429556","173.211","NaN","181.057","7.846","NaN","0","291",NA
"109","R_sQZayl0EUqZsXg5","standard","2","30","LP","0.264713485566566","182.059","182.338","182.879","0.82","0.541","3","294",NA
"110","R_sQZayl0EUqZsXg5","standard","2","31","LP","0.264713485566566","183.881","184.166","184.526","0.645","0.36","3","297",NA
"111","R_sQZayl0EUqZsXg5","standard","2","32","LP","13.0392072382594","185.532","NaN","191.157","5.625","NaN","0","297",NA
"112","R_sQZayl0EUqZsXg5","standard","2","33","LP","30","192.169","NaN","199.379","7.21","NaN","0","297",NA
"113","R_sQZayl0EUqZsXg5","standard","2","34","LP","13.0392072382594","200.389","NaN","209.28","8.891","NaN","0","297",NA
"114","R_sQZayl0EUqZsXg5","standard","2","35","LP","0.264713485566566","210.283","210.553","210.978","0.695","0.425","3","300",NA
"115","R_sQZayl0EUqZsXg5","standard","2","36","LP","19.8235243429556","211.988","NaN","218.343","6.355","NaN","0","300",NA
"116","R_sQZayl0EUqZsXg5","standard","2","37","LP","30","219.349","NaN","225.571","6.222","NaN","0","300",NA
"117","R_sQZayl0EUqZsXg5","standard","2","38","LP","19.8235243429556","226.586","NaN","233.002","6.416","NaN","0","300",NA
"118","R_sQZayl0EUqZsXg5","standard","2","39","LP","13.0392072382594","234.01","NaN","240.965","6.955","NaN","0","300",NA
"119","R_sQZayl0EUqZsXg5","standard","2","40","LP","3.49090909090909","241.979","245.475","245.887","3.908","0.412","3","303",NA
"120","R_sQZayl0EUqZsXg5","standard","2","41","LP","13.0392072382594","246.896","NaN","255.102","8.206","NaN","0","303",NA
"121","R_sQZayl0EUqZsXg5","standard","2","42","LP","0.264713485566566","256.115","256.382","256.819","0.704","0.437","3","306",NA
"122","R_sQZayl0EUqZsXg5","standard","2","43","LP","13.0392072382594","257.823","NaN","266.267","8.444","NaN","0","306",NA
"123","R_sQZayl0EUqZsXg5","standard","2","44","LP","8.51632916846187","267.28","NaN","275.714","8.434","NaN","0","306",NA
"124","R_sQZayl0EUqZsXg5","standard","2","45","LP","0.661783713916415","276.718","277.39","277.747","1.029","0.357","3","309",NA
"125","R_sQZayl0EUqZsXg5","standard","2","46","LP","30","278.748","NaN","286.648","7.9","NaN","0","309",NA
"126","R_sQZayl0EUqZsXg5","standard","2","47","LP","30","287.662","NaN","295.325","7.663","NaN","0","309",NA
"127","R_sQZayl0EUqZsXg5","standard","2","48","LP","30","296.337","NaN","305.004","8.667","NaN","0","309",NA
"128","R_sQZayl0EUqZsXg5","standard","2","49","LP","13.0392072382594","306.019","NaN","313.508","7.489","NaN","0","309",NA
"129","R_sQZayl0EUqZsXg5","standard","2","50","LP","13.0392072382594","314.529","NaN","322.445","7.916","NaN","0","309",NA
"130","R_sQZayl0EUqZsXg5","standard","2","51","LP","13.0392072382594","323.447","NaN","329.462","6.015","NaN","0","309",NA
"131","R_sQZayl0EUqZsXg5","standard","2","52","LP","13.0392072382594","330.468","343.513","344.037","13.569","0.524","3","312",NA
"132","R_sQZayl0EUqZsXg5","standard","2","53","LP","19.8235243429556","345.04","364.866","365.249","20.209","0.383","3","315",NA
"133","R_sQZayl0EUqZsXg5","standard","2","54","LP","2.15079707022835","366.255","368.415","368.736","2.481","0.321","3","318",NA
"134","R_sQZayl0EUqZsXg5","standard","2","55","LP","8.51632916846187","369.75","378.276","378.641","8.891","0.365","3","321",NA
"135","R_sQZayl0EUqZsXg5","standard","2","56","LP","8.51632916846187","379.65","388.171","388.533","8.883","0.362","3","324",NA
"136","R_sQZayl0EUqZsXg5","standard","2","57","LP","5.5010771219302","389.537","395.038","395.464","5.927","0.426","3","327",NA
"137","R_sQZayl0EUqZsXg5","standard","2","58","LP","30","396.473","NaN","413.375","16.902","NaN","0","327",NA
"138","R_sQZayl0EUqZsXg5","standard","2","59","LP","8.51632916846187","414.376","NaN","422.158","7.782","NaN","0","327",NA
"139","R_sQZayl0EUqZsXg5","standard","2","60","LP","2.15079707022835","423.168","425.323","425.721","2.553","0.398","3","330",NA
"140","R_sQZayl0EUqZsXg5","standard","2","61","LP","13.0392072382594","426.728","NaN","432.173","5.445","NaN","0","330",NA
"141","R_sQZayl0EUqZsXg5","standard","2","62","LP","2.15079707022835","433.186","435.34","435.741","2.555","0.401","3","333",NA
"142","R_sQZayl0EUqZsXg5","standard","2","63","LP","3.49090909090909","436.745","440.237","440.637","3.892","0.4","3","336",NA
"143","R_sQZayl0EUqZsXg5","standard","2","64","LP","19.8235243429556","441.644","NaN","447.58","5.936","NaN","0","336",NA
"144","R_sQZayl0EUqZsXg5","standard","2","65","LP","0.264713485566566","448.581","448.851","449.333","0.752","0.482","3","339",NA
"145","R_sQZayl0EUqZsXg5","standard","2","66","LP","0.661783713916415","450.34","451.005","451.47","1.13","0.465","3","342",NA
"146","R_sQZayl0EUqZsXg5","standard","2","67","LP","13.0392072382594","452.479","NaN","456.601","4.122","NaN","0","342",NA
"147","R_sQZayl0EUqZsXg5","standard","2","68","LP","0.264713485566566","457.614","457.884","458.326","0.712","0.442","3","345",NA
"148","R_sQZayl0EUqZsXg5","standard","2","69","LP","1.25738905644119","459.336","460.594","460.965","1.629","0.371","3","348",NA
"149","R_sQZayl0EUqZsXg5","standard","2","70","LP","19.8235243429556","461.966","NaN","467.16","5.194","NaN","0","348",NA
"150","R_sQZayl0EUqZsXg5","standard","2","71","LP","30","468.162","NaN","472.159","3.997","NaN","0","348",NA
"151","R_sQZayl0EUqZsXg5","standard","2","72","LP","2.15079707022835","473.166","475.338","475.649","2.483","0.311","3","351",NA
"152","R_sQZayl0EUqZsXg5","standard","2","73","LP","5.5010771219302","476.662","NaN","481.181","4.519","NaN","0","351",NA
"153","R_sQZayl0EUqZsXg5","standard","2","74","LP","3.49090909090909","482.194","485.69","486.029","3.835","0.339","3","354",NA
"154","R_sQZayl0EUqZsXg5","standard","2","75","LP","2.15079707022835","487.049","489.202","489.532","2.483","0.33","3","357",NA
"155","R_sQZayl0EUqZsXg5","standard","2","76","LP","30","490.537","NaN","496.247","5.71","NaN","0","357",NA
"156","R_sQZayl0EUqZsXg5","standard","2","77","LP","13.0392072382594","497.257","NaN","501.341","4.084","NaN","0","357",NA
"157","R_sQZayl0EUqZsXg5","standard","2","78","LP","0.264713485566566","502.345","502.614","503.01","0.665","0.396","3","360",NA
"158","R_sQZayl0EUqZsXg5","standard","2","79","LP","2.15079707022835","504.018","506.173","506.512","2.494","0.339","3","363",NA
"159","R_sQZayl0EUqZsXg5","standard","2","80","LP","2.15079707022835","507.515","509.669","510.008","2.493","0.339","3","366",NA
"160","R_sQZayl0EUqZsXg5","standard","2","81","LP","2.15079707022835","511.027","513.179","513.64","2.613","0.461","3","369",NA
"161","R_sQZayl0EUqZsXg5","standard","2","82","LP","5.5010771219302","514.653","NaN","520.066","5.413","NaN","0","369",NA
"162","R_sQZayl0EUqZsXg5","standard","2","83","LP","0.264713485566566","521.073","521.359","521.755","0.682","0.396","3","372",NA
"163","R_sQZayl0EUqZsXg5","standard","2","84","LP","30","522.768","NaN","526.342","3.574","NaN","0","372",NA
"164","R_sQZayl0EUqZsXg5","standard","2","85","LP","0.264713485566566","527.349","527.634","528.033","0.684","0.399","3","375",NA
"165","R_sQZayl0EUqZsXg5","standard","2","86","LP","2.15079707022835","529.039","531.193","531.605","2.566","0.412","3","378",NA
"166","R_sQZayl0EUqZsXg5","standard","2","87","LP","2.15079707022835","532.626","534.786","535.125","2.499","0.339","3","381",NA
"167","R_sQZayl0EUqZsXg5","standard","2","88","LP","3.49090909090909","536.143","539.653","540.04","3.897","0.387","3","384",NA
"168","R_sQZayl0EUqZsXg5","standard","2","89","LP","2.15079707022835","541.056","543.21","543.536","2.48","0.326","3","387",NA
"169","R_sQZayl0EUqZsXg5","standard","2","90","LP","2.15079707022835","544.546","546.704","547.099","2.553","0.395","3","390",NA
"170","R_sQZayl0EUqZsXg5","standard","2","91","LP","3.49090909090909","548.109","551.604","551.928","3.819","0.324","3","393",NA
"171","R_sQZayl0EUqZsXg5","standard","2","92","LP","3.49090909090909","552.939","556.434","556.809","3.87","0.375","3","396",NA
"172","R_sQZayl0EUqZsXg5","standard","2","93","LP","19.8235243429556","557.821","NaN","564.122","6.301","NaN","0","396",NA
"173","R_sQZayl0EUqZsXg5","standard","2","94","LP","3.49090909090909","565.129","568.619","568.987","3.858","0.368","3","399",NA
"174","R_sQZayl0EUqZsXg5","standard","2","95","LP","1.25738905644119","569.988","571.244","571.649","1.661","0.405","3","402",NA
"175","R_sQZayl0EUqZsXg5","standard","2","96","LP","19.8235243429556","572.648","NaN","576.216","3.568","NaN","0","402",NA
"176","R_sQZayl0EUqZsXg5","standard","2","97","LP","19.8235243429556","577.225","NaN","580.534","3.309","NaN","0","402",NA
"177","R_sQZayl0EUqZsXg5","standard","2","98","LP","0.661783713916415","581.538","582.209","582.537","0.999","0.328","3","405",NA
"178","R_sQZayl0EUqZsXg5","standard","2","99","LP","30","583.545","NaN","586.892","3.347","NaN","0","405",NA
"179","R_sQZayl0EUqZsXg5","standard","2","100","LP","8.51632916846187","587.896","NaN","590.879","2.983","NaN","0","405",NA
"180","R_sQZayl0EUqZsXg5","standard","2","101","LP","30","591.893","NaN","595.483","3.59","NaN","0","405",NA
