"","subject_id","condition","n_block","n_trialIdx","f_timing_condition","n_scheduled_delay","n_trial_start_time","n_rewarded_time_fin","n_sell_time_fin","n_time_waited_fin","RT_fin","n_trial_earnings_fin","n_total_earnings_fin","keypress_times"
"1","R_T8fTsBhME0MNGGR","standard","1","1","HP","6","0.001","6.007","6.331","6.33","0.324","3","3",""
"2","R_T8fTsBhME0MNGGR","standard","1","2","HP","18","7.349","25.363","25.706","18.357","0.343","3","6",""
"3","R_T8fTsBhME0MNGGR","standard","1","3","HP","18","26.716","44.729","45.068","18.352","0.339","3","9",""
"4","R_T8fTsBhME0MNGGR","standard","1","4","HP","18","46.07","64.079","64.562","18.492","0.483","3","12",""
"5","R_T8fTsBhME0MNGGR","standard","1","5","HP","14","65.571","79.574","79.923","14.352","0.349","3","15",""
"6","R_T8fTsBhME0MNGGR","standard","1","6","HP","2","80.928","82.935","83.669","2.741","0.734","3","18",""
"7","R_T8fTsBhME0MNGGR","standard","1","7","HP","16","84.68","100.688","101.048","16.368","0.36","3","21",""
"8","R_T8fTsBhME0MNGGR","standard","1","8","HP","8","102.058","110.066","110.433","8.375","0.367","3","24",""
"9","R_T8fTsBhME0MNGGR","standard","1","9","HP","6","111.451","117.464","117.817","6.366","0.353","3","27",""
"10","R_T8fTsBhME0MNGGR","standard","1","10","HP","8","118.817","126.823","127.15","8.333","0.327","3","30",""
"11","R_T8fTsBhME0MNGGR","standard","1","11","HP","10","128.16","138.167","138.512","10.352","0.345","3","30","8776"
"12","R_T8fTsBhME0MNGGR","standard","1","12","HP","2","139.522","141.528","141.965","2.443","0.437","3","33",""
"13","R_T8fTsBhME0MNGGR","standard","1","13","HP","10","142.969","152.988","153.349","10.38","0.361","3","36",""
"14","R_T8fTsBhME0MNGGR","standard","1","14","HP","14","154.356","168.359","168.786","14.43","0.427","3","39",""
"15","R_T8fTsBhME0MNGGR","standard","1","15","HP","16","169.805","185.812","186.096","16.291","0.284","3","42",""
"16","R_T8fTsBhME0MNGGR","standard","1","16","HP","20","187.115","207.125","207.443","20.328","0.318","3","45",""
"17","R_T8fTsBhME0MNGGR","standard","1","17","HP","12","208.447","220.449","220.841","12.394","0.392","3","48",""
"18","R_T8fTsBhME0MNGGR","standard","1","18","HP","14","221.854","235.877","236.245","14.391","0.368","3","51",""
"19","R_T8fTsBhME0MNGGR","standard","1","19","HP","10","237.247","247.25","247.679","10.432","0.429","3","54",""
"20","R_T8fTsBhME0MNGGR","standard","1","20","HP","8","248.687","256.706","257.079","8.392","0.373","3","57",""
"21","R_T8fTsBhME0MNGGR","standard","1","21","HP","12","258.086","270.094","270.465","12.379","0.371","3","60",""
"22","R_T8fTsBhME0MNGGR","standard","1","22","HP","20","271.473","291.479","291.805","20.332","0.326","3","63",""
"23","R_T8fTsBhME0MNGGR","standard","1","23","HP","16","292.821","308.832","309.175","16.354","0.343","3","66",""
"24","R_T8fTsBhME0MNGGR","standard","1","24","HP","16","310.183","326.199","326.512","16.329","0.313","3","69",""
"25","R_T8fTsBhME0MNGGR","standard","1","25","HP","4","327.517","331.526","331.924","4.407","0.398","3","72",""
"26","R_T8fTsBhME0MNGGR","standard","1","26","HP","10","332.936","342.937","343.259","10.323","0.322","3","75",""
"27","R_T8fTsBhME0MNGGR","standard","1","27","HP","8","344.263","352.284","352.675","8.412","0.391","3","78",""
"28","R_T8fTsBhME0MNGGR","standard","1","28","HP","12","353.682","365.701","366.044","12.362","0.343","3","81",""
"29","R_T8fTsBhME0MNGGR","standard","1","29","HP","12","367.046","379.055","379.419","12.373","0.364","3","84",""
"30","R_T8fTsBhME0MNGGR","standard","1","30","HP","16","380.422","396.43","396.821","16.399","0.391","3","87",""
"31","R_T8fTsBhME0MNGGR","standard","1","31","HP","4","397.828","401.84","402.274","4.446","0.434","3","90",""
"32","R_T8fTsBhME0MNGGR","standard","1","32","HP","6","403.28","409.287","409.709","6.429","0.422","3","93",""
"33","R_T8fTsBhME0MNGGR","standard","1","33","HP","18","410.714","428.728","429.099","18.385","0.371","3","96",""
"34","R_T8fTsBhME0MNGGR","standard","1","34","HP","20","430.111","450.121","450.462","20.351","0.341","3","99",""
"35","R_T8fTsBhME0MNGGR","standard","1","35","HP","4","451.471","455.487","455.982","4.511","0.495","3","102",""
"36","R_T8fTsBhME0MNGGR","standard","1","36","HP","20","456.998","477.01","477.334","20.336","0.324","3","105",""
"37","R_T8fTsBhME0MNGGR","standard","1","37","HP","16","478.343","494.343","494.698","16.355","0.355","3","108",""
"38","R_T8fTsBhME0MNGGR","standard","1","38","HP","12","495.716","507.729","508.092","12.376","0.363","3","111",""
"39","R_T8fTsBhME0MNGGR","standard","1","39","HP","10","509.095","519.112","519.631","10.536","0.519","3","114",""
"40","R_T8fTsBhME0MNGGR","standard","1","40","HP","20","520.643","540.644","541.011","20.368","0.367","3","117",""
"41","R_T8fTsBhME0MNGGR","standard","1","41","HP","16","542.02","558.024","558.529","16.509","0.505","3","120",""
"42","R_T8fTsBhME0MNGGR","standard","1","42","HP","8","559.541","567.563","568.056","8.515","0.493","3","123",""
"43","R_T8fTsBhME0MNGGR","standard","1","43","HP","12","569.062","581.085","581.504","12.442","0.419","3","126",""
"44","R_T8fTsBhME0MNGGR","standard","1","44","HP","20","582.509","602.514","603.032","20.523","0.518","3","129",""
"45","R_T8fTsBhME0MNGGR","standard","1","45","HP","6","604.047","610.056","610.695","6.648","0.639","3","132",""
"46","R_T8fTsBhME0MNGGR","standard","1","46","HP","4","611.711","615.722","616.05","4.339","0.328","3","135",""
"47","R_T8fTsBhME0MNGGR","standard","1","47","HP","4","617.059","621.067","621.418","4.359","0.351","3","138",""
"48","R_T8fTsBhME0MNGGR","standard","1","48","HP","18","622.42","640.429","640.799","18.379","0.37","3","141",""
"49","R_T8fTsBhME0MNGGR","standard","1","49","HP","10","641.811","651.82","652.21","10.399","0.39","3","144",""
"50","R_T8fTsBhME0MNGGR","standard","1","50","HP","12","653.221","665.221","665.572","12.351","0.351","3","147",""
"51","R_T8fTsBhME0MNGGR","standard","1","51","HP","12","666.588","678.602","678.976","12.388","0.374","3","150",""
"52","R_T8fTsBhME0MNGGR","standard","1","52","HP","2","679.986","681.99","682.565","2.579","0.575","3","153",""
"53","R_T8fTsBhME0MNGGR","standard","1","53","HP","14","683.581","697.583","697.948","14.367","0.365","3","156",""
"54","R_T8fTsBhME0MNGGR","standard","1","54","HP","4","698.951","702.958","703.315","4.364","0.357","3","159",""
"55","R_T8fTsBhME0MNGGR","standard","1","55","HP","8","704.323","712.327","712.729","8.406","0.402","3","162",""
"56","R_T8fTsBhME0MNGGR","standard","1","56","HP","4","713.734","717.735","718.134","4.4","0.399","3","165",""
"57","R_T8fTsBhME0MNGGR","standard","1","57","HP","10","719.149","729.154","729.505","10.356","0.351","3","168",""
"58","R_T8fTsBhME0MNGGR","standard","1","58","HP","12","730.519","742.535","742.918","12.399","0.383","3","171",""
"59","R_T8fTsBhME0MNGGR","standard","1","59","HP","6","743.921","749.929","750.478","6.557","0.549","3","174",""
"60","R_T8fTsBhME0MNGGR","standard","1","60","HP","14","751.496","765.502","765.94","14.444","0.438","3","177",""
"61","R_T8fTsBhME0MNGGR","standard","1","61","HP","10","766.943","776.954","777.32","10.377","0.366","3","180",""
"62","R_T8fTsBhME0MNGGR","standard","1","62","HP","12","778.324","790.335","790.687","12.363","0.352","3","183",""
"63","R_T8fTsBhME0MNGGR","standard","1","63","HP","8","791.702","799.709","800.087","8.385","0.378","3","186",""
"64","R_T8fTsBhME0MNGGR","standard","1","64","HP","6","801.109","807.125","807.517","6.408","0.392","3","189",""
"65","R_T8fTsBhME0MNGGR","standard","1","65","HP","6","808.525","814.534","814.86","6.335","0.326","3","192",""
"66","R_T8fTsBhME0MNGGR","standard","1","66","HP","14","815.872","829.893","830.257","14.385","0.364","3","195",""
"67","R_T8fTsBhME0MNGGR","standard","1","67","HP","18","831.275","849.281","849.664","18.389","0.383","3","198",""
"68","R_T8fTsBhME0MNGGR","standard","1","68","HP","10","850.68","860.688","861.058","10.378","0.37","3","201",""
"69","R_T8fTsBhME0MNGGR","standard","1","69","HP","20","862.071","882.086","882.448","20.377","0.362","3","204",""
"70","R_T8fTsBhME0MNGGR","standard","1","70","HP","14","883.47","897.484","897.874","14.404","0.39","3","207",""
"71","R_T8fTsBhME0MNGGR","standard","2","1","LP","13.0392072382594","0","13.052","13.441","13.441","0.389","3","210",NA
"72","R_T8fTsBhME0MNGGR","standard","2","2","LP","5.5010771219302","14.45","19.964","20.401","5.951","0.437","3","213",NA
"73","R_T8fTsBhME0MNGGR","standard","2","3","LP","30","21.401","NaN","29.723","8.322","NaN","0","213",NA
"74","R_T8fTsBhME0MNGGR","standard","2","4","LP","2.15079707022835","30.732","32.898","33.492","2.76","0.594","3","216",NA
"75","R_T8fTsBhME0MNGGR","standard","2","5","LP","2.15079707022835","34.497","36.658","37.055","2.558","0.397","3","219",NA
"76","R_T8fTsBhME0MNGGR","standard","2","6","LP","1.25738905644119","38.07","39.333","39.669","1.599","0.336","3","222",NA
"77","R_T8fTsBhME0MNGGR","standard","2","7","LP","13.0392072382594","40.686","NaN","48.184","7.498","NaN","0","222",NA
"78","R_T8fTsBhME0MNGGR","standard","2","8","LP","2.15079707022835","49.2","51.355","51.696","2.496","0.341","3","225",NA
"79","R_T8fTsBhME0MNGGR","standard","2","9","LP","8.51632916846187","52.699","61.228","61.556","8.857","0.328","3","228",NA
"80","R_T8fTsBhME0MNGGR","standard","2","10","LP","0.661783713916415","62.563","63.235",NA,"1.69",NA,"0","228",NA
"81","R_T8fTsBhME0MNGGR","standard","2","11","LP","30","65.257","NaN","74.494","9.237","NaN","0","228",NA
"82","R_T8fTsBhME0MNGGR","standard","2","12","LP","3.49090909090909","75.504","79.014","79.329","3.825","0.315","3","231",NA
"83","R_T8fTsBhME0MNGGR","standard","2","13","LP","30","80.336","NaN","89.103","8.767","NaN","0","231",NA
"84","R_T8fTsBhME0MNGGR","standard","2","14","LP","2.15079707022835","90.117","92.274","92.659","2.542","0.385","3","234",NA
"85","R_T8fTsBhME0MNGGR","standard","2","15","LP","19.8235243429556","93.671","NaN","104.911","11.24","NaN","0","234",NA
"86","R_T8fTsBhME0MNGGR","standard","2","16","LP","30","105.916","NaN","115.649","9.733","NaN","0","234",NA
"87","R_T8fTsBhME0MNGGR","standard","2","17","LP","8.51632916846187","116.649","125.17","125.435","8.786","0.265","3","237",NA
"88","R_T8fTsBhME0MNGGR","standard","2","18","LP","13.0392072382594","126.437","NaN","136.327","9.89","NaN","0","237",NA
"89","R_T8fTsBhME0MNGGR","standard","2","19","LP","0.264713485566566","137.337","137.607","138.058","0.721","0.451","3","240",NA
"90","R_T8fTsBhME0MNGGR","standard","2","20","LP","0.661783713916415","139.068","139.734","140.135","1.067","0.401","3","243",NA
"91","R_T8fTsBhME0MNGGR","standard","2","21","LP","8.51632916846187","141.137","149.666","149.695","8.558","0.029","3","246",NA
"92","R_T8fTsBhME0MNGGR","standard","2","22","LP","30","150.709","NaN","160.844","10.135","NaN","0","246",NA
"93","R_T8fTsBhME0MNGGR","standard","2","23","LP","0.661783713916415","161.863","162.531","162.977","1.114","0.446","3","249",NA
"94","R_T8fTsBhME0MNGGR","standard","2","24","LP","1.25738905644119","163.99","165.26","165.643","1.653","0.383","3","252",NA
"95","R_T8fTsBhME0MNGGR","standard","2","25","LP","0.661783713916415","166.659","167.324","167.679","1.02","0.355","3","255",NA
"96","R_T8fTsBhME0MNGGR","standard","2","26","LP","13.0392072382594","168.695","NaN","177.903","9.208","NaN","0","255",NA
"97","R_T8fTsBhME0MNGGR","standard","2","27","LP","19.8235243429556","178.92","NaN","188.213","9.293","NaN","0","255",NA
"98","R_T8fTsBhME0MNGGR","standard","2","28","LP","30","189.222","NaN","198.603","9.381","NaN","0","255",NA
"99","R_T8fTsBhME0MNGGR","standard","2","29","LP","0.661783713916415","199.603","200.269","200.729","1.126","0.46","3","258",NA
"100","R_T8fTsBhME0MNGGR","standard","2","30","LP","0.264713485566566","201.74","202.008","202.423","0.683","0.415","3","261",NA
"101","R_T8fTsBhME0MNGGR","standard","2","31","LP","0.264713485566566","203.438","203.705","204.058","0.62","0.353","3","264",NA
"102","R_T8fTsBhME0MNGGR","standard","2","32","LP","19.8235243429556","205.072","NaN","209.72","4.648","NaN","0","264",NA
"103","R_T8fTsBhME0MNGGR","standard","2","33","LP","8.51632916846187","210.723","NaN","215.115","4.392","NaN","0","264",NA
"104","R_T8fTsBhME0MNGGR","standard","2","34","LP","2.15079707022835","216.126","218.278","218.685","2.559","0.407","3","267",NA
"105","R_T8fTsBhME0MNGGR","standard","2","35","LP","2.15079707022835","219.692","221.862","222.23","2.538","0.368","3","270",NA
"106","R_T8fTsBhME0MNGGR","standard","2","36","LP","0.264713485566566","223.234","223.52","223.964","0.73","0.444","3","273",NA
"107","R_T8fTsBhME0MNGGR","standard","2","37","LP","30","224.978","NaN","229.98","5.002","NaN","0","273",NA
"108","R_T8fTsBhME0MNGGR","standard","2","38","LP","30","230.986","NaN","236.656","5.67","NaN","0","273",NA
"109","R_T8fTsBhME0MNGGR","standard","2","39","LP","19.8235243429556","237.658","NaN","242.886","5.228","NaN","0","273",NA
"110","R_T8fTsBhME0MNGGR","standard","2","40","LP","1.25738905644119","243.9","245.163","245.542","1.642","0.379","3","276",NA
"111","R_T8fTsBhME0MNGGR","standard","2","41","LP","2.15079707022835","246.551","248.713","249.097","2.546","0.384","3","279",NA
"112","R_T8fTsBhME0MNGGR","standard","2","42","LP","5.5010771219302","250.112","NaN","255.228","5.116","NaN","0","279",NA
"113","R_T8fTsBhME0MNGGR","standard","2","43","LP","19.8235243429556","256.244","NaN","261.211","4.967","NaN","0","279",NA
"114","R_T8fTsBhME0MNGGR","standard","2","44","LP","30","262.215","NaN","266.931","4.716","NaN","0","279",NA
"115","R_T8fTsBhME0MNGGR","standard","2","45","LP","2.15079707022835","267.942","270.105","270.527","2.585","0.422","3","282",NA
"116","R_T8fTsBhME0MNGGR","standard","2","46","LP","2.15079707022835","271.537","273.694","274.02","2.483","0.326","3","285",NA
"117","R_T8fTsBhME0MNGGR","standard","2","47","LP","8.51632916846187","275.026","NaN","280.445","5.419","NaN","0","285",NA
"118","R_T8fTsBhME0MNGGR","standard","2","48","LP","13.0392072382594","281.454","NaN","287.026","5.572","NaN","0","285",NA
"119","R_T8fTsBhME0MNGGR","standard","2","49","LP","3.49090909090909","288.035","291.526","291.94","3.905","0.414","3","288",NA
"120","R_T8fTsBhME0MNGGR","standard","2","50","LP","3.49090909090909","292.943","296.434","296.85","3.907","0.416","3","291",NA
"121","R_T8fTsBhME0MNGGR","standard","2","51","LP","30","297.858","NaN","303.154","5.296","NaN","0","291",NA
"122","R_T8fTsBhME0MNGGR","standard","2","52","LP","0.264713485566566","304.168","304.434","304.906","0.738","0.472","3","294",NA
"123","R_T8fTsBhME0MNGGR","standard","2","53","LP","1.25738905644119","305.907","307.173","307.539","1.632","0.366","3","297",NA
"124","R_T8fTsBhME0MNGGR","standard","2","54","LP","3.49090909090909","308.554","312.056","312.397","3.843","0.341","3","300",NA
"125","R_T8fTsBhME0MNGGR","standard","2","55","LP","3.49090909090909","313.41","316.914","317.302","3.892","0.388","3","303",NA
"126","R_T8fTsBhME0MNGGR","standard","2","56","LP","0.264713485566566","318.312","318.578","319.067","0.755","0.489","3","306",NA
"127","R_T8fTsBhME0MNGGR","standard","2","57","LP","3.49090909090909","320.083","323.577","324.016","3.933","0.439","3","309",NA
"128","R_T8fTsBhME0MNGGR","standard","2","58","LP","8.51632916846187","325.017","NaN","330.624","5.607","NaN","0","309",NA
"129","R_T8fTsBhME0MNGGR","standard","2","59","LP","1.25738905644119","331.628","332.89","333.499","1.871","0.609","3","312",NA
"130","R_T8fTsBhME0MNGGR","standard","2","60","LP","5.5010771219302","334.505","NaN","339.874","5.369","NaN","0","312",NA
"131","R_T8fTsBhME0MNGGR","standard","2","61","LP","5.5010771219302","340.882","NaN","346.339","5.457","NaN","0","312",NA
"132","R_T8fTsBhME0MNGGR","standard","2","62","LP","0.264713485566566","347.359","347.623","348.068","0.709","0.445","3","315",NA
"133","R_T8fTsBhME0MNGGR","standard","2","63","LP","0.264713485566566","349.074","349.345","349.8","0.726","0.455","3","318",NA
"134","R_T8fTsBhME0MNGGR","standard","2","64","LP","0.661783713916415","350.806","351.479","351.856","1.05","0.377","3","321",NA
"135","R_T8fTsBhME0MNGGR","standard","2","65","LP","30","352.863","NaN","360.465","7.602","NaN","0","321",NA
"136","R_T8fTsBhME0MNGGR","standard","2","66","LP","1.25738905644119","361.485","362.746","363.114","1.629","0.368","3","324",NA
"137","R_T8fTsBhME0MNGGR","standard","2","67","LP","30","364.126","NaN","369.237","5.111","NaN","0","324",NA
"138","R_T8fTsBhME0MNGGR","standard","2","68","LP","2.15079707022835","370.246","372.406","372.773","2.527","0.367","3","327",NA
"139","R_T8fTsBhME0MNGGR","standard","2","69","LP","5.5010771219302","373.793","NaN","379.165","5.372","NaN","0","327",NA
"140","R_T8fTsBhME0MNGGR","standard","2","70","LP","5.5010771219302","380.182","385.691","385.698","5.516","0.007","3","330",NA
"141","R_T8fTsBhME0MNGGR","standard","2","71","LP","2.15079707022835","386.717","388.883","389.372","2.655","0.489","3","333",NA
"142","R_T8fTsBhME0MNGGR","standard","2","72","LP","0.264713485566566","390.392","390.671","391.191","0.799","0.52","3","336",NA
"143","R_T8fTsBhME0MNGGR","standard","2","73","LP","8.51632916846187","392.195","NaN","398.018","5.823","NaN","0","336",NA
"144","R_T8fTsBhME0MNGGR","standard","2","74","LP","2.15079707022835","399.026","401.191","401.583","2.557","0.392","3","339",NA
"145","R_T8fTsBhME0MNGGR","standard","2","75","LP","13.0392072382594","402.586","NaN","409.022","6.436","NaN","0","339",NA
"146","R_T8fTsBhME0MNGGR","standard","2","76","LP","3.49090909090909","410.029","413.531","413.91","3.881","0.379","3","342",NA
"147","R_T8fTsBhME0MNGGR","standard","2","77","LP","13.0392072382594","414.914","NaN","420.554","5.64","NaN","0","342",NA
"148","R_T8fTsBhME0MNGGR","standard","2","78","LP","0.264713485566566","421.563","421.831","422.232","0.669","0.401","3","345",NA
"149","R_T8fTsBhME0MNGGR","standard","2","79","LP","30","423.234","NaN","429.291","6.057","NaN","0","345",NA
"150","R_T8fTsBhME0MNGGR","standard","2","80","LP","13.0392072382594","430.298","NaN","435.826","5.528","NaN","0","345",NA
"151","R_T8fTsBhME0MNGGR","standard","2","81","LP","2.15079707022835","436.832","438.982","439.36","2.528","0.378","3","348",NA
"152","R_T8fTsBhME0MNGGR","standard","2","82","LP","0.264713485566566","440.362","440.632","441.126","0.764","0.494","3","351",NA
"153","R_T8fTsBhME0MNGGR","standard","2","83","LP","0.264713485566566","442.132","442.402","442.75","0.618","0.348","3","354",NA
"154","R_T8fTsBhME0MNGGR","standard","2","84","LP","19.8235243429556","443.754","NaN","449.012","5.258","NaN","0","354",NA
"155","R_T8fTsBhME0MNGGR","standard","2","85","LP","0.661783713916415","450.022","450.69","451.128","1.106","0.438","3","357",NA
"156","R_T8fTsBhME0MNGGR","standard","2","86","LP","0.661783713916415","452.132","452.803","453.156","1.024","0.353","3","360",NA
"157","R_T8fTsBhME0MNGGR","standard","2","87","LP","13.0392072382594","454.165","NaN","460.024","5.859","NaN","0","360",NA
"158","R_T8fTsBhME0MNGGR","standard","2","88","LP","13.0392072382594","461.028","NaN","467.483","6.455","NaN","0","360",NA
"159","R_T8fTsBhME0MNGGR","standard","2","89","LP","30","468.49","NaN","475.17","6.68","NaN","0","360",NA
"160","R_T8fTsBhME0MNGGR","standard","2","90","LP","1.25738905644119","476.179","477.443","477.862","1.683","0.419","3","363",NA
"161","R_T8fTsBhME0MNGGR","standard","2","91","LP","13.0392072382594","478.866","NaN","485.37","6.504","NaN","0","363",NA
"162","R_T8fTsBhME0MNGGR","standard","2","92","LP","13.0392072382594","486.378","NaN","491.564","5.186","NaN","0","363",NA
"163","R_T8fTsBhME0MNGGR","standard","2","93","LP","0.264713485566566","492.57","492.849","493.256","0.686","0.407","3","366",NA
"164","R_T8fTsBhME0MNGGR","standard","2","94","LP","3.49090909090909","494.258","497.769","498.077","3.819","0.308","3","369",NA
"165","R_T8fTsBhME0MNGGR","standard","2","95","LP","3.49090909090909","499.077","502.575","502.958","3.881","0.383","3","372",NA
"166","R_T8fTsBhME0MNGGR","standard","2","96","LP","30","503.962","NaN","509.994","6.032","NaN","0","372",NA
"167","R_T8fTsBhME0MNGGR","standard","2","97","LP","3.49090909090909","511.013","514.506","514.853","3.84","0.347","3","375",NA
"168","R_T8fTsBhME0MNGGR","standard","2","98","LP","0.264713485566566","515.868","516.139","516.642","0.774","0.503","3","378",NA
"169","R_T8fTsBhME0MNGGR","standard","2","99","LP","13.0392072382594","517.66","NaN","522.705","5.045","NaN","0","378",NA
"170","R_T8fTsBhME0MNGGR","standard","2","100","LP","0.264713485566566","523.716","523.996","524.376","0.66","0.38","3","381",NA
"171","R_T8fTsBhME0MNGGR","standard","2","101","LP","13.0392072382594","525.379","NaN","530.704","5.325","NaN","0","381",NA
"172","R_T8fTsBhME0MNGGR","standard","2","102","LP","5.5010771219302","531.715","537.222","537.562","5.847","0.34","3","384",NA
"173","R_T8fTsBhME0MNGGR","standard","2","103","LP","5.5010771219302","538.571","544.086","544.43","5.859","0.344","3","387",NA
"174","R_T8fTsBhME0MNGGR","standard","2","104","LP","1.25738905644119","545.436","546.701","547.107","1.671","0.406","3","390",NA
"175","R_T8fTsBhME0MNGGR","standard","2","105","LP","13.0392072382594","548.115","NaN","556.437","8.322","NaN","0","390",NA
"176","R_T8fTsBhME0MNGGR","standard","2","106","LP","5.5010771219302","557.445","NaN","562.18","4.735","NaN","0","390",NA
"177","R_T8fTsBhME0MNGGR","standard","2","107","LP","13.0392072382594","563.185","NaN","570.566","7.381","NaN","0","390",NA
"178","R_T8fTsBhME0MNGGR","standard","2","108","LP","8.51632916846187","571.576","580.099","580.466","8.89","0.367","3","393",NA
"179","R_T8fTsBhME0MNGGR","standard","2","109","LP","0.264713485566566","581.479","581.758","582.212","0.733","0.454","3","396",NA
"180","R_T8fTsBhME0MNGGR","standard","2","110","LP","8.51632916846187","583.219","591.737","592.095","8.876","0.358","3","399",NA
"181","R_T8fTsBhME0MNGGR","standard","2","111","LP","5.5010771219302","593.109","598.621","599.044","5.935","0.423","3","402",NA
