"","subject_id","condition","n_block","n_trialIdx","f_timing_condition","n_scheduled_delay","n_trial_start_time","n_rewarded_time_fin","n_sell_time_fin","n_time_waited_fin","RT_fin","n_trial_earnings_fin","n_total_earnings_fin","keypress_times"
"1","R_tR0m35B25SAGgZb","standard","1","1","HP","16","0.003","16.007","16.587","16.584","0.58","3","3",""
"2","R_tR0m35B25SAGgZb","standard","1","2","HP","14","17.595","31.604","32.294","14.699","0.69","3","6",""
"3","R_tR0m35B25SAGgZb","standard","1","3","HP","6","33.311","39.353","40.301","6.99","0.948","3","9",""
"4","R_tR0m35B25SAGgZb","standard","1","4","HP","18","41.309","59.318","60","18.691","0.682","3","12",""
"5","R_tR0m35B25SAGgZb","standard","1","5","HP","20","61.004","81.006","81.741","20.737","0.735","3","15",""
"6","R_tR0m35B25SAGgZb","standard","1","6","HP","4","82.751","86.755","87.656","4.905","0.901","3","18",""
"7","R_tR0m35B25SAGgZb","standard","1","7","HP","18","88.668","106.687","107.378","18.71","0.691","3","21",""
"8","R_tR0m35B25SAGgZb","standard","1","8","HP","20","108.403","128.415","129.162","20.759","0.747","3","24",""
"9","R_tR0m35B25SAGgZb","standard","1","9","HP","6","130.169","136.194","136.833","6.664","0.639","3","27",""
"10","R_tR0m35B25SAGgZb","standard","1","10","HP","10","137.837","147.843","148.57","10.733","0.727","3","30",""
"11","R_tR0m35B25SAGgZb","standard","1","11","HP","6","149.582","155.602","156.279","6.697","0.677","3","33",""
"12","R_tR0m35B25SAGgZb","standard","1","12","HP","14","157.284","171.291","171.849","14.565","0.558","3","36",""
"13","R_tR0m35B25SAGgZb","standard","1","13","HP","6","172.851","178.86","179.626","6.775","0.766","3","39",""
"14","R_tR0m35B25SAGgZb","standard","1","14","HP","8","180.628","188.634","189.316","8.688","0.682","3","42",""
"15","R_tR0m35B25SAGgZb","standard","1","15","HP","14","190.318","204.32","205.088","14.77","0.768","3","45",""
"16","R_tR0m35B25SAGgZb","standard","1","16","HP","16","206.092","222.1","222.82","16.728","0.72","3","48",""
"17","R_tR0m35B25SAGgZb","standard","1","17","HP","4","223.828","227.834","228.566","4.738","0.732","3","51",""
"18","R_tR0m35B25SAGgZb","standard","1","18","HP","18","229.582","247.587","248.265","18.683","0.678","3","54",""
"19","R_tR0m35B25SAGgZb","standard","1","19","HP","16","249.282","265.283","265.981","16.699","0.698","3","57",""
"20","R_tR0m35B25SAGgZb","standard","1","20","HP","6","266.988","272.995","273.657","6.669","0.662","3","60",""
"21","R_tR0m35B25SAGgZb","standard","1","21","HP","2","274.659","276.68","277.536","2.877","0.856","3","63",""
"22","R_tR0m35B25SAGgZb","standard","1","22","HP","14","278.539","292.547","293.189","14.65","0.642","3","66",""
"23","R_tR0m35B25SAGgZb","standard","1","23","HP","18","294.207","312.215","312.932","18.725","0.717","3","69",""
"24","R_tR0m35B25SAGgZb","standard","1","24","HP","16","313.943","329.948","330.646","16.703","0.698","3","72",""
"25","R_tR0m35B25SAGgZb","standard","1","25","HP","4","331.668","335.679","336.514","4.846","0.835","3","75",""
"26","R_tR0m35B25SAGgZb","standard","1","26","HP","6","337.522","343.524","344.22","6.698","0.696","3","78",""
"27","R_tR0m35B25SAGgZb","standard","1","27","HP","8","345.228","353.23","353.944","8.716","0.714","3","81",""
"28","R_tR0m35B25SAGgZb","standard","1","28","HP","14","354.947","368.957","369.623","14.676","0.666","3","84",""
"29","R_tR0m35B25SAGgZb","standard","1","29","HP","14","370.629","384.636","385.329","14.7","0.693","3","87",""
"30","R_tR0m35B25SAGgZb","standard","1","30","HP","14","386.333","400.34","401.044","14.711","0.704","3","90",""
"31","R_tR0m35B25SAGgZb","standard","1","31","HP","16","402.06","418.069","418.683","16.623","0.614","3","93",""
"32","R_tR0m35B25SAGgZb","standard","1","32","HP","12","419.688","431.707","432.376","12.688","0.669","3","96",""
"33","R_tR0m35B25SAGgZb","standard","1","33","HP","20","433.392","453.406","454.04","20.648","0.634","3","99",""
"34","R_tR0m35B25SAGgZb","standard","1","34","HP","14","455.045","469.054","469.732","14.687","0.678","3","102",""
"35","R_tR0m35B25SAGgZb","standard","1","35","HP","2","470.74","472.748","473.69","2.95","0.942","3","105",""
"36","R_tR0m35B25SAGgZb","standard","1","36","HP","6","474.726","480.729","481.413","6.687","0.684","3","108",""
"37","R_tR0m35B25SAGgZb","standard","1","37","HP","18","482.433","500.437","501.032","18.599","0.595","3","111",""
"38","R_tR0m35B25SAGgZb","standard","1","38","HP","4","502.037","506.045","506.735","4.698","0.69","3","114",""
"39","R_tR0m35B25SAGgZb","standard","1","39","HP","6","507.741","513.756","514.472","6.731","0.716","3","117",""
"40","R_tR0m35B25SAGgZb","standard","1","40","HP","12","515.489","527.492","528.17","12.681","0.678","3","120",""
"41","R_tR0m35B25SAGgZb","standard","1","41","HP","16","529.173","545.18","545.792","16.619","0.612","3","123",""
"42","R_tR0m35B25SAGgZb","standard","1","42","HP","18","546.797","564.804","565.414","18.617","0.61","3","126",""
"43","R_tR0m35B25SAGgZb","standard","1","43","HP","4","566.418","570.431","571.135","4.717","0.704","3","129",""
"44","R_tR0m35B25SAGgZb","standard","1","44","HP","10","572.139","582.14","582.872","10.733","0.732","3","132",""
"45","R_tR0m35B25SAGgZb","standard","1","45","HP","10","583.886","593.903","594.532","10.646","0.629","3","135",""
"46","R_tR0m35B25SAGgZb","standard","1","46","HP","4","595.534","599.54","600.27","4.736","0.73","3","138",""
"47","R_tR0m35B25SAGgZb","standard","1","47","HP","6","601.292","607.3","608.054","6.762","0.754","3","141",""
"48","R_tR0m35B25SAGgZb","standard","1","48","HP","6","609.061","615.069","615.919","6.858","0.85","3","144",""
"49","R_tR0m35B25SAGgZb","standard","1","49","HP","18","616.925","634.932","635.701","18.776","0.769","3","147",""
"50","R_tR0m35B25SAGgZb","standard","1","50","HP","8","636.709","644.729","645.546","8.837","0.817","3","150",""
"51","R_tR0m35B25SAGgZb","standard","1","51","HP","2","646.549","648.557","649.397","2.848","0.84","3","153",""
"52","R_tR0m35B25SAGgZb","standard","1","52","HP","6","650.42","656.422","657.187","6.767","0.765","3","156",""
"53","R_tR0m35B25SAGgZb","standard","1","53","HP","2","658.189","660.196","660.947","2.758","0.751","3","159",""
"54","R_tR0m35B25SAGgZb","standard","1","54","HP","8","661.948","669.967","670.6","8.652","0.633","3","162",""
"55","R_tR0m35B25SAGgZb","standard","1","55","HP","2","671.616","673.617","674.491","2.875","0.874","3","165",""
"56","R_tR0m35B25SAGgZb","standard","1","56","HP","8","675.493","683.514","684.283","8.79","0.769","3","168",""
"57","R_tR0m35B25SAGgZb","standard","1","57","HP","16","685.295","701.301","702.079","16.784","0.778","3","171",""
"58","R_tR0m35B25SAGgZb","standard","1","58","HP","4","703.115","707.122","707.881","4.766","0.759","3","174",""
"59","R_tR0m35B25SAGgZb","standard","1","59","HP","2","708.898","710.915","711.693","2.795","0.778","3","177",""
"60","R_tR0m35B25SAGgZb","standard","1","60","HP","18","712.699","730.702","731.322","18.623","0.62","3","180",""
"61","R_tR0m35B25SAGgZb","standard","1","61","HP","6","732.326","738.334","739.068","6.742","0.734","3","183",""
"62","R_tR0m35B25SAGgZb","standard","1","62","HP","10","740.082","750.095","750.827","10.745","0.732","3","186",""
"63","R_tR0m35B25SAGgZb","standard","1","63","HP","16","751.831","767.838","768.497","16.666","0.659","3","189",""
"64","R_tR0m35B25SAGgZb","standard","1","64","HP","4","769.502","773.512","774.282","4.78","0.77","3","192",""
"65","R_tR0m35B25SAGgZb","standard","1","65","HP","18","775.286","793.289","794.282","18.996","0.993","3","192","17948"
"66","R_tR0m35B25SAGgZb","standard","1","66","HP","6","795.288","801.304","802.059","6.771","0.755","3","195",""
"67","R_tR0m35B25SAGgZb","standard","1","67","HP","20","803.062","823.078","823.719","20.657","0.641","3","198",""
"68","R_tR0m35B25SAGgZb","standard","1","68","HP","6","824.731","830.735","831.507","6.776","0.772","3","201",""
"69","R_tR0m35B25SAGgZb","standard","1","69","HP","18","832.518","850.527","851.171","18.653","0.644","3","204",""
"70","R_tR0m35B25SAGgZb","standard","1","70","HP","6","852.175","858.183","858.835","6.66","0.652","3","207",""
"71","R_tR0m35B25SAGgZb","standard","1","71","HP","20","859.838","879.847","880.577","20.739","0.73","3","210",""
"72","R_tR0m35B25SAGgZb","standard","2","1","LP","19.8235243429556","0.001","NaN","1.196","1.195","NaN","0","210",NA
"73","R_tR0m35B25SAGgZb","standard","2","2","LP","1.25738905644119","2.213","NaN","3.237","1.024","NaN","0","210",NA
"74","R_tR0m35B25SAGgZb","standard","2","3","LP","2.15079707022835","4.242","NaN","4.815","0.573","NaN","0","210",NA
"75","R_tR0m35B25SAGgZb","standard","2","4","LP","2.15079707022835","5.817","NaN","6.335","0.518","NaN","0","210",NA
"76","R_tR0m35B25SAGgZb","standard","2","5","LP","8.51632916846187","7.361","NaN","7.903","0.542","NaN","0","210",NA
"77","R_tR0m35B25SAGgZb","standard","2","6","LP","8.51632916846187","8.911","NaN","9.476","0.565","NaN","0","210",NA
"78","R_tR0m35B25SAGgZb","standard","2","7","LP","3.49090909090909","10.487","NaN","11.189","0.702","NaN","0","210",NA
"79","R_tR0m35B25SAGgZb","standard","2","8","LP","8.51632916846187","12.207","NaN","12.847","0.64","NaN","0","210",NA
"80","R_tR0m35B25SAGgZb","standard","2","9","LP","8.51632916846187","13.849","NaN","14.631","0.782","NaN","0","210",NA
"81","R_tR0m35B25SAGgZb","standard","2","10","LP","13.0392072382594","15.638","NaN","20.174","4.536","NaN","0","210",NA
"82","R_tR0m35B25SAGgZb","standard","2","11","LP","0.264713485566566","21.188","21.477",NA,"1.295",NA,"0","210",NA
"83","R_tR0m35B25SAGgZb","standard","2","12","LP","19.8235243429556","23.489","NaN","25.13","1.641","NaN","0","210",NA
"84","R_tR0m35B25SAGgZb","standard","2","13","LP","13.0392072382594","26.137","NaN","32.414","6.277","NaN","0","210",NA
"85","R_tR0m35B25SAGgZb","standard","2","14","LP","1.25738905644119","33.417","34.693",NA,"2.281",NA,"0","210",NA
"86","R_tR0m35B25SAGgZb","standard","2","15","LP","5.5010771219302","36.706","42.21","42.788","6.082","0.578","3","213",NA
"87","R_tR0m35B25SAGgZb","standard","2","16","LP","2.15079707022835","43.803","45.961",NA,"3.167",NA,"0","213",NA
"88","R_tR0m35B25SAGgZb","standard","2","17","LP","8.51632916846187","48.005","NaN","51.375","3.37","NaN","0","213",NA
"89","R_tR0m35B25SAGgZb","standard","2","18","LP","8.51632916846187","52.377","NaN","56.036","3.659","NaN","0","213",NA
"90","R_tR0m35B25SAGgZb","standard","2","19","LP","5.5010771219302","57.042","62.546",NA,"6.512",NA,"0","213",NA
"91","R_tR0m35B25SAGgZb","standard","2","20","LP","2.15079707022835","64.576","66.729",NA,"3.171",NA,"0","213",NA
"92","R_tR0m35B25SAGgZb","standard","2","21","LP","0.264713485566566","68.753","69.018","69.453","0.7","0.435","3","216",NA
"93","R_tR0m35B25SAGgZb","standard","2","22","LP","8.51632916846187","70.471","NaN","71.055","0.584","NaN","0","216",NA
"94","R_tR0m35B25SAGgZb","standard","2","23","LP","1.25738905644119","72.071","73.337",NA,"2.277",NA,"0","216",NA
"95","R_tR0m35B25SAGgZb","standard","2","24","LP","0.264713485566566","75.353","75.618","76.388","1.035","0.77","3","219",NA
"96","R_tR0m35B25SAGgZb","standard","2","25","LP","8.51632916846187","77.406","85.93","86.545","9.139","0.615","3","222",NA
"97","R_tR0m35B25SAGgZb","standard","2","26","LP","5.5010771219302","87.553","93.07","93.669","6.116","0.599","3","225",NA
"98","R_tR0m35B25SAGgZb","standard","2","27","LP","13.0392072382594","94.685","107.729","108.569","13.884","0.84","3","228",NA
"99","R_tR0m35B25SAGgZb","standard","2","28","LP","0.264713485566566","109.583","109.868",NA,"1.294",NA,"0","228",NA
"100","R_tR0m35B25SAGgZb","standard","2","29","LP","5.5010771219302","111.884","117.401","118.128","6.244","0.727","3","231",NA
"101","R_tR0m35B25SAGgZb","standard","2","30","LP","2.15079707022835","119.13","121.283","122.097","2.967","0.814","3","234",NA
"102","R_tR0m35B25SAGgZb","standard","2","31","LP","13.0392072382594","123.118","136.162","136.84","13.722","0.678","3","237",NA
"103","R_tR0m35B25SAGgZb","standard","2","32","LP","3.49090909090909","137.841","141.335","142.129","4.288","0.794","3","240",NA
"104","R_tR0m35B25SAGgZb","standard","2","33","LP","0.661783713916415","143.129","143.8","144.623","1.494","0.823","3","243",NA
"105","R_tR0m35B25SAGgZb","standard","2","34","LP","8.51632916846187","145.625","154.146","154.932","9.307","0.786","3","246",NA
"106","R_tR0m35B25SAGgZb","standard","2","35","LP","19.8235243429556","155.937","175.769","176.39","20.453","0.621","3","249",NA
"107","R_tR0m35B25SAGgZb","standard","2","36","LP","0.661783713916415","177.412","178.084",NA,"1.686",NA,"0","249",NA
"108","R_tR0m35B25SAGgZb","standard","2","37","LP","0.264713485566566","180.113","180.398","181.231","1.118","0.833","3","252",NA
"109","R_tR0m35B25SAGgZb","standard","2","38","LP","19.8235243429556","182.233","NaN","184.567","2.334","NaN","0","252",NA
"110","R_tR0m35B25SAGgZb","standard","2","39","LP","30","185.58","NaN","193.897","8.317","NaN","0","252",NA
"111","R_tR0m35B25SAGgZb","standard","2","40","LP","19.8235243429556","194.923","NaN","201.233","6.31","NaN","0","252",NA
"112","R_tR0m35B25SAGgZb","standard","2","41","LP","0.661783713916415","202.234","202.913",NA,"1.693",NA,"0","252",NA
"113","R_tR0m35B25SAGgZb","standard","2","42","LP","3.49090909090909","204.929","NaN","206.018","1.089","NaN","0","252",NA
"114","R_tR0m35B25SAGgZb","standard","2","43","LP","19.8235243429556","207.02","NaN","223.812","16.792","NaN","0","252",NA
"115","R_tR0m35B25SAGgZb","standard","2","44","LP","8.51632916846187","224.815","233.337","234.14","9.325","0.803","3","255",NA
"116","R_tR0m35B25SAGgZb","standard","2","45","LP","1.25738905644119","235.146","236.413","237.435","2.289","1.022","3","258",NA
"117","R_tR0m35B25SAGgZb","standard","2","46","LP","0.264713485566566","238.467","238.734","239.679","1.212","0.945","3","261",NA
"118","R_tR0m35B25SAGgZb","standard","2","47","LP","5.5010771219302","240.681","246.197","246.902","6.221","0.705","3","264",NA
"119","R_tR0m35B25SAGgZb","standard","2","48","LP","1.25738905644119","247.916","249.177","249.879","1.963","0.702","3","267",NA
"120","R_tR0m35B25SAGgZb","standard","2","49","LP","0.264713485566566","250.897","251.169","251.864","0.967","0.695","3","270",NA
"121","R_tR0m35B25SAGgZb","standard","2","50","LP","0.264713485566566","252.865","253.13","253.764","0.899","0.634","3","273",NA
"122","R_tR0m35B25SAGgZb","standard","2","51","LP","5.5010771219302","254.778","260.287","260.964","6.186","0.677","3","276",NA
"123","R_tR0m35B25SAGgZb","standard","2","52","LP","8.51632916846187","261.969","270.49","271.226","9.257","0.736","3","279",NA
"124","R_tR0m35B25SAGgZb","standard","2","53","LP","0.661783713916415","272.231","272.91","273.666","1.435","0.756","3","282",NA
"125","R_tR0m35B25SAGgZb","standard","2","54","LP","3.49090909090909","274.674","278.178","278.891","4.217","0.713","3","285",NA
"126","R_tR0m35B25SAGgZb","standard","2","55","LP","0.661783713916415","279.897","280.578","281.364","1.467","0.786","3","288",NA
"127","R_tR0m35B25SAGgZb","standard","2","56","LP","0.661783713916415","282.381","283.05","283.825","1.444","0.775","3","291",NA
"128","R_tR0m35B25SAGgZb","standard","2","57","LP","13.0392072382594","284.829","297.877","298.501","13.672","0.624","3","294",NA
"129","R_tR0m35B25SAGgZb","standard","2","58","LP","13.0392072382594","299.507","312.553","313.259","13.752","0.706","3","297",NA
"130","R_tR0m35B25SAGgZb","standard","2","59","LP","2.15079707022835","314.278","316.433","317.178","2.9","0.745","3","300",NA
"131","R_tR0m35B25SAGgZb","standard","2","60","LP","19.8235243429556","318.193","338.018","338.739","20.546","0.721","3","303",NA
"132","R_tR0m35B25SAGgZb","standard","2","61","LP","0.661783713916415","339.745","340.41","341.168","1.423","0.758","3","306",NA
"133","R_tR0m35B25SAGgZb","standard","2","62","LP","1.25738905644119","342.177","343.441","344.161","1.984","0.72","3","309",NA
"134","R_tR0m35B25SAGgZb","standard","2","63","LP","30","345.191","375.208","375.875","30.684","0.667","3","312",NA
"135","R_tR0m35B25SAGgZb","standard","2","64","LP","0.661783713916415","376.89","377.553","378.257","1.367","0.704","3","315",NA
"136","R_tR0m35B25SAGgZb","standard","2","65","LP","13.0392072382594","379.282","392.324","393.231","13.949","0.907","3","318",NA
"137","R_tR0m35B25SAGgZb","standard","2","66","LP","3.49090909090909","394.233","397.725","398.475","4.242","0.75","3","321",NA
"138","R_tR0m35B25SAGgZb","standard","2","67","LP","3.49090909090909","399.49","402.991","403.749","4.259","0.758","3","324",NA
"139","R_tR0m35B25SAGgZb","standard","2","68","LP","0.264713485566566","404.754","405.024","405.762","1.008","0.738","3","327",NA
"140","R_tR0m35B25SAGgZb","standard","2","69","LP","13.0392072382594","406.77","419.809","420.496","13.726","0.687","3","330",NA
"141","R_tR0m35B25SAGgZb","standard","2","70","LP","0.264713485566566","421.506","421.777",NA,"1.288",NA,"0","330",NA
"142","R_tR0m35B25SAGgZb","standard","2","71","LP","30","423.802","453.808","454.426","30.624","0.618","3","333",NA
"143","R_tR0m35B25SAGgZb","standard","2","72","LP","2.15079707022835","455.434","457.588","458.324","2.89","0.736","3","336",NA
"144","R_tR0m35B25SAGgZb","standard","2","73","LP","8.51632916846187","459.33","467.851","468.54","9.21","0.689","3","339",NA
"145","R_tR0m35B25SAGgZb","standard","2","74","LP","0.264713485566566","469.545","469.819","470.756","1.211","0.937","3","342",NA
"146","R_tR0m35B25SAGgZb","standard","2","75","LP","5.5010771219302","471.762","477.27","478.013","6.251","0.743","3","345",NA
"147","R_tR0m35B25SAGgZb","standard","2","76","LP","1.25738905644119","479.017","480.286","481.003","1.986","0.717","3","348",NA
"148","R_tR0m35B25SAGgZb","standard","2","77","LP","1.25738905644119","482.015","483.287","483.932","1.917","0.645","3","351",NA
"149","R_tR0m35B25SAGgZb","standard","2","78","LP","19.8235243429556","484.938","504.769","505.454","20.516","0.685","3","354",NA
"150","R_tR0m35B25SAGgZb","standard","2","79","LP","19.8235243429556","506.47","526.301","527.068","20.598","0.767","3","357",NA
"151","R_tR0m35B25SAGgZb","standard","2","80","LP","8.51632916846187","528.073","536.602","537.354","9.281","0.752","3","360",NA
"152","R_tR0m35B25SAGgZb","standard","2","81","LP","2.15079707022835","538.37","540.522","541.394","3.024","0.872","3","363",NA
"153","R_tR0m35B25SAGgZb","standard","2","82","LP","5.5010771219302","542.402","547.914","548.644","6.242","0.73","3","366",NA
"154","R_tR0m35B25SAGgZb","standard","2","83","LP","0.661783713916415","549.649","550.319","551.14","1.491","0.821","3","369",NA
"155","R_tR0m35B25SAGgZb","standard","2","84","LP","0.264713485566566","552.145","552.418","553.18","1.035","0.762","3","372",NA
"156","R_tR0m35B25SAGgZb","standard","2","85","LP","0.264713485566566","554.185","554.468","555.192","1.007","0.724","3","375",NA
"157","R_tR0m35B25SAGgZb","standard","2","86","LP","19.8235243429556","556.198","576.025","576.745","20.547","0.72","3","378",NA
"158","R_tR0m35B25SAGgZb","standard","2","87","LP","2.15079707022835","577.766","579.921","580.651","2.885","0.73","3","381",NA
"159","R_tR0m35B25SAGgZb","standard","2","88","LP","3.49090909090909","581.668","585.184","585.897","4.229","0.713","3","384",NA
"160","R_tR0m35B25SAGgZb","standard","2","89","LP","0.661783713916415","586.924","587.598","588.351","1.427","0.753","3","387",NA
"161","R_tR0m35B25SAGgZb","standard","2","90","LP","2.15079707022835","589.366","591.518","592.157","2.791","0.639","3","390",NA
"162","R_tR0m35B25SAGgZb","standard","2","91","LP","0.264713485566566","593.161","593.434",NA,"1.283",NA,"0","390",NA
"163","R_tR0m35B25SAGgZb","standard","2","92","LP","0.264713485566566","595.451","595.722","596.403","0.952","0.681","3","393",NA
"164","R_tR0m35B25SAGgZb","standard","2","93","LP","1.25738905644119","597.404","598.673","599.397","1.993","0.724","3","396",NA
