"","subject_id","condition","n_block","n_trialIdx","f_timing_condition","n_scheduled_delay","n_trial_start_time","n_rewarded_time_fin","n_sell_time_fin","n_time_waited_fin","RT_fin","n_trial_earnings_fin","n_total_earnings_fin","keypress_times"
"1","R_UcOZWs8LlrGpyfv","standard","1","1","LP","19.8235243429556","0.002","19.828","20.537","20.535","0.709","3","3","c(""17553"", ""18910"")"
"2","R_UcOZWs8LlrGpyfv","standard","1","2","LP","5.5010771219302","21.538","27.042","27.858","6.32","0.816","3","6",""
"3","R_UcOZWs8LlrGpyfv","standard","1","3","LP","30","28.859","58.871","59.672","30.813","0.801","3","3","c(""18032"", ""21022"", ""22742"", ""25239"", ""29085"")"
"4","R_UcOZWs8LlrGpyfv","standard","1","4","LP","1.25738905644119","60.674","61.938","NA","2.274","NA","0","3",""
"5","R_UcOZWs8LlrGpyfv","standard","1","5","LP","13.0392072382594","63.955","77.003","77.722","13.767","0.719","3","6",""
"6","R_UcOZWs8LlrGpyfv","standard","1","6","LP","8.51632916846187","78.731","87.251","87.972","9.241","0.721","3","9",""
"7","R_UcOZWs8LlrGpyfv","standard","1","7","LP","13.0392072382594","88.979","102.026","102.719","13.74","0.693","3","12",""
"8","R_UcOZWs8LlrGpyfv","standard","1","8","LP","3.49090909090909","103.722","107.213","107.939","4.217","0.726","3","15",""
"9","R_UcOZWs8LlrGpyfv","standard","1","9","LP","0.661783713916415","108.947","109.611","110.434","1.487","0.823","3","18",""
"10","R_UcOZWs8LlrGpyfv","standard","1","10","LP","13.0392072382594","111.443","124.492","125.162","13.719","0.67","3","21",""
"11","R_UcOZWs8LlrGpyfv","standard","1","11","LP","13.0392072382594","126.17","139.212","139.908","13.738","0.696","3","24",""
"12","R_UcOZWs8LlrGpyfv","standard","1","12","LP","13.0392072382594","140.91","153.953","154.603","13.693","0.65","3","27",""
"13","R_UcOZWs8LlrGpyfv","standard","1","13","LP","5.5010771219302","155.605","161.107","161.971","6.366","0.864","3","30",""
"14","R_UcOZWs8LlrGpyfv","standard","1","14","LP","0.661783713916415","162.979","163.642","NA","1.668","NA","0","30",""
"15","R_UcOZWs8LlrGpyfv","standard","1","15","LP","8.51632916846187","165.648","174.171","174.867","9.219","0.696","3","33",""
"16","R_UcOZWs8LlrGpyfv","standard","1","16","LP","30","175.875","205.882","206.568","30.693","0.686","3","36",""
"17","R_UcOZWs8LlrGpyfv","standard","1","17","LP","19.8235243429556","207.571","227.402","228.067","20.496","0.665","3","39",""
"18","R_UcOZWs8LlrGpyfv","standard","1","18","LP","5.5010771219302","229.075","234.578","235.283","6.208","0.705","3","42",""
"19","R_UcOZWs8LlrGpyfv","standard","1","19","LP","13.0392072382594","236.291","249.334","249.995","13.704","0.661","3","45",""
"20","R_UcOZWs8LlrGpyfv","standard","1","20","LP","13.0392072382594","251.004","264.051","264.871","13.867","0.82","3","48",""
"21","R_UcOZWs8LlrGpyfv","standard","1","21","LP","3.49090909090909","265.874","269.37","270.164","4.29","0.794","3","51",""
"22","R_UcOZWs8LlrGpyfv","standard","1","22","LP","19.8235243429556","271.171","291.003","291.741","20.57","0.738","3","54",""
"23","R_UcOZWs8LlrGpyfv","standard","1","23","LP","30","292.746","322.756","323.428","30.682","0.672","3","57",""
"24","R_UcOZWs8LlrGpyfv","standard","1","24","LP","0.264713485566566","324.434","324.707","325.636","1.202","0.929","3","60",""
"25","R_UcOZWs8LlrGpyfv","standard","1","25","LP","13.0392072382594","326.643","339.69","340.373","13.73","0.683","3","63",""
"26","R_UcOZWs8LlrGpyfv","standard","1","26","LP","0.264713485566566","341.38","341.644","342.516","1.136","0.872","3","66",""
"27","R_UcOZWs8LlrGpyfv","standard","1","27","LP","13.0392072382594","343.524","356.57","357.348","13.824","0.778","3","69",""
"28","R_UcOZWs8LlrGpyfv","standard","1","28","LP","0.661783713916415","358.351","359.018","NA","1.679","NA","0","69",""
"29","R_UcOZWs8LlrGpyfv","standard","1","29","LP","0.264713485566566","361.033","361.299","362.02","0.987","0.721","3","72",""
"30","R_UcOZWs8LlrGpyfv","standard","1","30","LP","8.51632916846187","363.026","371.546","372.253","9.227","0.707","3","75",""
"31","R_UcOZWs8LlrGpyfv","standard","1","31","LP","13.0392072382594","373.259","386.307","386.981","13.722","0.674","3","78",""
"32","R_UcOZWs8LlrGpyfv","standard","1","32","LP","8.51632916846187","387.987","396.507","397.253","9.266","0.746","3","81",""
"33","R_UcOZWs8LlrGpyfv","standard","1","33","LP","3.49090909090909","398.259","401.755","402.484","4.225","0.729","3","84",""
"34","R_UcOZWs8LlrGpyfv","standard","1","34","LP","8.51632916846187","403.491","412.011","412.818","9.327","0.807","3","87",""
"35","R_UcOZWs8LlrGpyfv","standard","1","35","LP","2.15079707022835","413.827","415.978","416.733","2.906","0.755","3","90",""
"36","R_UcOZWs8LlrGpyfv","standard","1","36","LP","0.264713485566566","417.74","418.005","418.846","1.106","0.841","3","93",""
"37","R_UcOZWs8LlrGpyfv","standard","1","37","LP","0.264713485566566","419.848","420.114","420.765","0.917","0.651","3","96",""
"38","R_UcOZWs8LlrGpyfv","standard","1","38","LP","0.264713485566566","421.771","422.036","422.741","0.97","0.705","3","99",""
"39","R_UcOZWs8LlrGpyfv","standard","1","39","LP","8.51632916846187","423.743","432.266","432.908","9.165","0.642","3","102",""
"40","R_UcOZWs8LlrGpyfv","standard","1","40","LP","2.15079707022835","433.91","436.067","436.877","2.967","0.81","3","105",""
"41","R_UcOZWs8LlrGpyfv","standard","1","41","LP","2.15079707022835","437.883","440.035","440.725","2.842","0.69","3","108",""
"42","R_UcOZWs8LlrGpyfv","standard","1","42","LP","1.25738905644119","441.732","442.995","443.661","1.929","0.666","3","111",""
"43","R_UcOZWs8LlrGpyfv","standard","1","43","LP","1.25738905644119","444.668","445.93","446.557","1.889","0.627","3","114",""
"44","R_UcOZWs8LlrGpyfv","standard","1","44","LP","5.5010771219302","447.56","453.068","453.725","6.165","0.657","3","117",""
"45","R_UcOZWs8LlrGpyfv","standard","1","45","LP","13.0392072382594","454.731","467.778","468.47","13.739","0.692","3","120",""
"46","R_UcOZWs8LlrGpyfv","standard","1","46","LP","0.264713485566566","469.475","469.747","470.477","1.002","0.73","3","123",""
"47","R_UcOZWs8LlrGpyfv","standard","1","47","LP","13.0392072382594","471.483","484.523","485.247","13.764","0.724","3","126",""
"48","R_UcOZWs8LlrGpyfv","standard","1","48","LP","0.264713485566566","486.253","486.523","487.334","1.081","0.811","3","129",""
"49","R_UcOZWs8LlrGpyfv","standard","1","49","LP","13.0392072382594","488.338","501.378","502.133","13.795","0.755","3","132",""
"50","R_UcOZWs8LlrGpyfv","standard","1","50","LP","0.264713485566566","503.138","503.408","NA","1.272","NA","0","132",""
"51","R_UcOZWs8LlrGpyfv","standard","1","51","LP","2.15079707022835","505.419","507.57","508.253","2.834","0.683","3","132","33"
"52","R_UcOZWs8LlrGpyfv","standard","1","52","LP","5.5010771219302","509.258","514.762","515.469","6.211","0.707","3","132","3629"
"53","R_UcOZWs8LlrGpyfv","standard","1","53","LP","2.15079707022835","516.474","518.627","519.333","2.859","0.706","3","135",""
"54","R_UcOZWs8LlrGpyfv","standard","1","54","LP","30","520.338","550.344","551.062","30.724","0.718","3","138",""
"55","R_UcOZWs8LlrGpyfv","standard","1","55","LP","13.0392072382594","552.067","565.107","565.814","13.747","0.707","3","141",""
"56","R_UcOZWs8LlrGpyfv","standard","1","56","LP","2.15079707022835","566.817","568.97","569.734","2.917","0.764","3","144",""
"57","R_UcOZWs8LlrGpyfv","standard","1","57","LP","3.49090909090909","570.74","574.232","574.95","4.21","0.718","3","147",""
"58","R_UcOZWs8LlrGpyfv","standard","1","58","LP","13.0392072382594","575.956","589.005","NA","14.05","NA","0","141","c(""2018"", ""8825"")"
"59","R_UcOZWs8LlrGpyfv","standard","1","59","LP","2.15079707022835","591.011","593.162","593.847","2.836","0.685","3","141","1211"
"60","R_UcOZWs8LlrGpyfv","standard","1","60","LP","19.8235243429556","594.848","614.675","615.439","20.591","0.764","3","141","9622"
"61","R_UcOZWs8LlrGpyfv","standard","1","61","LP","3.49090909090909","616.44","619.938","620.654","4.214","0.716","3","144",""
"62","R_UcOZWs8LlrGpyfv","standard","1","62","LP","0.264713485566566","621.658","621.93","622.759","1.101","0.829","3","147",""
"63","R_UcOZWs8LlrGpyfv","standard","1","63","LP","13.0392072382594","623.763","636.803","NA","14.042","NA","0","147",""
"64","R_UcOZWs8LlrGpyfv","standard","1","64","LP","1.25738905644119","638.81","640.074","640.862","2.052","0.788","3","150",""
"65","R_UcOZWs8LlrGpyfv","standard","1","65","LP","5.5010771219302","641.865","647.371","648.134","6.269","0.763","3","153",""
"66","R_UcOZWs8LlrGpyfv","standard","1","66","LP","1.25738905644119","649.139","650.404","651.151","2.012","0.747","3","156",""
"67","R_UcOZWs8LlrGpyfv","standard","1","67","LP","0.661783713916415","652.156","652.818","653.582","1.426","0.764","3","159",""
"68","R_UcOZWs8LlrGpyfv","standard","1","68","LP","13.0392072382594","654.588","667.635","668.36","13.772","0.725","3","162",""
"69","R_UcOZWs8LlrGpyfv","standard","1","69","LP","5.5010771219302","669.362","674.867","675.583","6.221","0.716","3","165",""
"70","R_UcOZWs8LlrGpyfv","standard","1","70","LP","19.8235243429556","676.586","696.41","697.296","20.71","0.886","3","165","3830"
"71","R_UcOZWs8LlrGpyfv","standard","1","71","LP","3.49090909090909","698.298","701.795","702.647","4.349","0.852","3","168",""
"72","R_UcOZWs8LlrGpyfv","standard","1","72","LP","19.8235243429556","703.65","723.483","724.193","20.543","0.71","3","171",""
"73","R_UcOZWs8LlrGpyfv","standard","1","73","LP","2.15079707022835","725.195","727.354","728.128","2.933","0.774","3","174",""
"74","R_UcOZWs8LlrGpyfv","standard","1","74","LP","3.49090909090909","729.129","732.626","733.384","4.255","0.758","3","177",""
"75","R_UcOZWs8LlrGpyfv","standard","1","75","LP","5.5010771219302","734.388","739.891","740.56","6.172","0.669","3","180",""
"76","R_UcOZWs8LlrGpyfv","standard","1","76","LP","30","741.561","771.571","772.265","30.704","0.694","3","183",""
"77","R_UcOZWs8LlrGpyfv","standard","1","77","LP","3.49090909090909","773.266","776.763","777.448","4.182","0.685","3","186",""
"78","R_UcOZWs8LlrGpyfv","standard","1","78","LP","5.5010771219302","778.452","783.955","784.665","6.213","0.71","3","189",""
"79","R_UcOZWs8LlrGpyfv","standard","1","79","LP","2.15079707022835","785.667","787.819","788.53","2.863","0.711","3","192",""
"80","R_UcOZWs8LlrGpyfv","standard","1","80","LP","2.15079707022835","789.539","791.691","792.352","2.813","0.661","3","195",""
"81","R_UcOZWs8LlrGpyfv","standard","1","81","LP","19.8235243429556","793.356","813.186","NA","20.841","NA","0","195",""
"82","R_UcOZWs8LlrGpyfv","standard","1","82","LP","0.661783713916415","815.199","815.867","NA","1.677","NA","0","195",""
"83","R_UcOZWs8LlrGpyfv","standard","1","83","LP","1.25738905644119","817.883","819.145","819.808","1.925","0.663","3","198",""
"84","R_UcOZWs8LlrGpyfv","standard","1","84","LP","0.661783713916415","820.81","821.474","822.16","1.35","0.686","3","201",""
"85","R_UcOZWs8LlrGpyfv","standard","1","85","LP","8.51632916846187","823.164","831.682","832.337","9.173","0.655","3","204",""
"86","R_UcOZWs8LlrGpyfv","standard","1","86","LP","1.25738905644119","833.339","834.603","835.528","2.189","0.925","3","207",""
"87","R_UcOZWs8LlrGpyfv","standard","1","87","LP","5.5010771219302","836.532","842.035","842.905","6.373","0.87","3","210",""
"88","R_UcOZWs8LlrGpyfv","standard","1","88","LP","19.8235243429556","843.908","863.733","864.432","20.524","0.699","3","213",""
"89","R_UcOZWs8LlrGpyfv","standard","1","89","LP","30","865.433","895.442","NA","31.019","NA","0","213",""
"90","R_UcOZWs8LlrGpyfv","standard","2","1","LP","3.49090909090909","0","NaN","1.562","1.562","NaN","0","213",NA
"91","R_UcOZWs8LlrGpyfv","standard","2","2","LP","1.25738905644119","2.57","3.834","4.114","1.544","0.28","3","216",NA
"92","R_UcOZWs8LlrGpyfv","standard","2","3","LP","0.661783713916415","5.117","5.786","6.082","0.965","0.296","3","219",NA
"93","R_UcOZWs8LlrGpyfv","standard","2","4","LP","30","7.09","NaN","7.722","0.632","NaN","0","219",NA
"94","R_UcOZWs8LlrGpyfv","standard","2","5","LP","1.25738905644119","8.729","NaN","9.513","0.784","NaN","0","219",NA
"95","R_UcOZWs8LlrGpyfv","standard","2","6","LP","8.51632916846187","10.522","NaN","10.977","0.455","NaN","0","219",NA
"96","R_UcOZWs8LlrGpyfv","standard","2","7","LP","8.51632916846187","11.986","NaN","12.633","0.647","NaN","0","219",NA
"97","R_UcOZWs8LlrGpyfv","standard","2","8","LP","1.25738905644119","13.637","14.897",NA,"2.271",NA,"0","219",NA
"98","R_UcOZWs8LlrGpyfv","standard","2","9","LP","8.51632916846187","16.909","25.426","26.074","9.165","0.648","3","222",NA
"99","R_UcOZWs8LlrGpyfv","standard","2","10","LP","13.0392072382594","27.082","40.122","40.925","13.843","0.803","3","225",NA
"100","R_UcOZWs8LlrGpyfv","standard","2","11","LP","19.8235243429556","41.931","61.763","62.436","20.505","0.673","3","228",NA
"101","R_UcOZWs8LlrGpyfv","standard","2","12","LP","19.8235243429556","63.443","83.274","84.092","20.649","0.818","3","231",NA
"102","R_UcOZWs8LlrGpyfv","standard","2","13","LP","0.661783713916415","85.094","85.764","86.659","1.565","0.895","3","234",NA
"103","R_UcOZWs8LlrGpyfv","standard","2","14","LP","30","87.667","117.675","118.301","30.634","0.626","3","237",NA
"104","R_UcOZWs8LlrGpyfv","standard","2","15","LP","19.8235243429556","119.309","139.138","139.932","20.623","0.794","3","240",NA
"105","R_UcOZWs8LlrGpyfv","standard","2","16","LP","0.264713485566566","140.938","141.204","142.179","1.241","0.975","3","243",NA
"106","R_UcOZWs8LlrGpyfv","standard","2","17","LP","3.49090909090909","143.186","146.682","147.372","4.186","0.69","3","246",NA
"107","R_UcOZWs8LlrGpyfv","standard","2","18","LP","8.51632916846187","148.378","156.898","157.613","9.235","0.715","3","249",NA
"108","R_UcOZWs8LlrGpyfv","standard","2","19","LP","30","158.62","188.628","189.277","30.657","0.649","3","252",NA
"109","R_UcOZWs8LlrGpyfv","standard","2","20","LP","2.15079707022835","190.284","192.444","193.372","3.088","0.928","3","255",NA
"110","R_UcOZWs8LlrGpyfv","standard","2","21","LP","0.661783713916415","194.38","195.043","195.813","1.433","0.77","3","258",NA
"111","R_UcOZWs8LlrGpyfv","standard","2","22","LP","0.661783713916415","196.819","197.482","198.188","1.369","0.706","3","261",NA
"112","R_UcOZWs8LlrGpyfv","standard","2","23","LP","30","199.194","229.203","229.909","30.715","0.706","3","264",NA
"113","R_UcOZWs8LlrGpyfv","standard","2","24","LP","8.51632916846187","230.909","239.428","240.173","9.264","0.745","3","267",NA
"114","R_UcOZWs8LlrGpyfv","standard","2","25","LP","5.5010771219302","241.179","246.683","247.365","6.186","0.682","3","270",NA
"115","R_UcOZWs8LlrGpyfv","standard","2","26","LP","0.264713485566566","248.37","248.642","249.445","1.075","0.803","3","273",NA
"116","R_UcOZWs8LlrGpyfv","standard","2","27","LP","1.25738905644119","250.451","251.714","252.421","1.97","0.707","3","276",NA
"117","R_UcOZWs8LlrGpyfv","standard","2","28","LP","1.25738905644119","253.426","254.691","255.509","2.083","0.818","3","279",NA
"118","R_UcOZWs8LlrGpyfv","standard","2","29","LP","19.8235243429556","256.515","276.346","277.189","20.674","0.843","3","282",NA
"119","R_UcOZWs8LlrGpyfv","standard","2","30","LP","0.661783713916415","278.196","278.859","279.781","1.585","0.922","3","285",NA
"120","R_UcOZWs8LlrGpyfv","standard","2","31","LP","19.8235243429556","280.787","300.618","301.341","20.554","0.723","3","288",NA
"121","R_UcOZWs8LlrGpyfv","standard","2","32","LP","1.25738905644119","302.344","303.604","304.541","2.197","0.937","3","291",NA
"122","R_UcOZWs8LlrGpyfv","standard","2","33","LP","3.49090909090909","305.547","309.037","309.818","4.271","0.781","3","294",NA
"123","R_UcOZWs8LlrGpyfv","standard","2","34","LP","1.25738905644119","310.819","312.082","312.83","2.011","0.748","3","297",NA
"124","R_UcOZWs8LlrGpyfv","standard","2","35","LP","8.51632916846187","313.834","322.355","323.269","9.435","0.914","3","300",NA
"125","R_UcOZWs8LlrGpyfv","standard","2","36","LP","2.15079707022835","324.275","326.426","327.429","3.154","1.003","3","303",NA
"126","R_UcOZWs8LlrGpyfv","standard","2","37","LP","30","328.434","358.443","359.055","30.621","0.612","3","306",NA
"127","R_UcOZWs8LlrGpyfv","standard","2","38","LP","8.51632916846187","360.055","368.578","369.391","9.336","0.813","3","309",NA
"128","R_UcOZWs8LlrGpyfv","standard","2","39","LP","13.0392072382594","370.394","383.443","384.344","13.95","0.901","3","312",NA
"129","R_UcOZWs8LlrGpyfv","standard","2","40","LP","13.0392072382594","385.347","398.394","399.128","13.781","0.734","3","315",NA
"130","R_UcOZWs8LlrGpyfv","standard","2","41","LP","0.264713485566566","400.131","400.403","401.246","1.115","0.843","3","318",NA
"131","R_UcOZWs8LlrGpyfv","standard","2","42","LP","0.264713485566566","402.251","402.523","403.239","0.988","0.716","3","321",NA
"132","R_UcOZWs8LlrGpyfv","standard","2","43","LP","1.25738905644119","404.243","405.506","406.198","1.955","0.692","3","324",NA
"133","R_UcOZWs8LlrGpyfv","standard","2","44","LP","0.661783713916415","407.204","407.866","408.601","1.397","0.735","3","327",NA
"134","R_UcOZWs8LlrGpyfv","standard","2","45","LP","13.0392072382594","409.604","422.651","423.375","13.771","0.724","3","330",NA
"135","R_UcOZWs8LlrGpyfv","standard","2","46","LP","30","424.379","454.386","455.216","30.837","0.83","3","333",NA
"136","R_UcOZWs8LlrGpyfv","standard","2","47","LP","0.661783713916415","456.218","456.884","457.679","1.461","0.795","3","336",NA
"137","R_UcOZWs8LlrGpyfv","standard","2","48","LP","1.25738905644119","458.683","459.948","460.736","2.053","0.788","3","339",NA
"138","R_UcOZWs8LlrGpyfv","standard","2","49","LP","2.15079707022835","461.739","463.891","464.551","2.812","0.66","3","342",NA
"139","R_UcOZWs8LlrGpyfv","standard","2","50","LP","13.0392072382594","465.554","478.595","479.4","13.846","0.805","3","345",NA
"140","R_UcOZWs8LlrGpyfv","standard","2","51","LP","0.661783713916415","480.402","481.066","481.807","1.405","0.741","3","348",NA
"141","R_UcOZWs8LlrGpyfv","standard","2","52","LP","5.5010771219302","482.811","488.316","489.126","6.315","0.81","3","351",NA
"142","R_UcOZWs8LlrGpyfv","standard","2","53","LP","30","490.13","520.131","520.792","30.662","0.661","3","354",NA
"143","R_UcOZWs8LlrGpyfv","standard","2","54","LP","19.8235243429556","521.795","NaN","523.625","1.83","NaN","0","354",NA
"144","R_UcOZWs8LlrGpyfv","standard","2","55","LP","30","524.626","554.636","555.313","30.687","0.677","3","357",NA
"145","R_UcOZWs8LlrGpyfv","standard","2","56","LP","2.15079707022835","556.314","558.466","559.248","2.934","0.782","3","360",NA
"146","R_UcOZWs8LlrGpyfv","standard","2","57","LP","1.25738905644119","560.251","561.509","562.376","2.125","0.867","3","363",NA
"147","R_UcOZWs8LlrGpyfv","standard","2","58","LP","8.51632916846187","563.379","571.899","572.641","9.262","0.742","3","366",NA
"148","R_UcOZWs8LlrGpyfv","standard","2","59","LP","8.51632916846187","573.642","582.164","582.929","9.287","0.765","3","369",NA
