"","subject_id","condition","n_block","n_trialIdx","f_timing_condition","n_scheduled_delay","n_trial_start_time","n_rewarded_time_fin","n_sell_time_fin","n_time_waited_fin","RT_fin","n_trial_earnings_fin","n_total_earnings_fin","keypress_times"
"1","R_WeMiJX6A2MLdq8x","standard","1","1","HP","12","0.003","12.012","13.005","13.002","0.993","3","3",""
"2","R_WeMiJX6A2MLdq8x","standard","1","2","HP","12","14.012","26.019","26.72","12.708","0.701","3","6",""
"3","R_WeMiJX6A2MLdq8x","standard","1","3","HP","8","27.724","35.732","36.44","8.716","0.708","3","9",""
"4","R_WeMiJX6A2MLdq8x","standard","1","4","HP","18","37.444","55.452","56.141","18.697","0.689","3","12",""
"5","R_WeMiJX6A2MLdq8x","standard","1","5","HP","4","57.147","61.156","61.899","4.752","0.743","3","15",""
"6","R_WeMiJX6A2MLdq8x","standard","1","6","HP","18","62.907","80.907","81.677","18.77","0.77","3","18",""
"7","R_WeMiJX6A2MLdq8x","standard","1","7","HP","4","82.684","86.69","87.493","4.809","0.803","3","21",""
"8","R_WeMiJX6A2MLdq8x","standard","1","8","HP","10","88.499","98.507","99.206","10.707","0.699","3","24",""
"9","R_WeMiJX6A2MLdq8x","standard","1","9","HP","14","100.212","114.212","114.896","14.684","0.684","3","27",""
"10","R_WeMiJX6A2MLdq8x","standard","1","10","HP","20","115.899","135.907","136.669","20.77","0.762","3","30",""
"11","R_WeMiJX6A2MLdq8x","standard","1","11","HP","14","137.675","151.683","152.447","14.772","0.764","3","33",""
"12","R_WeMiJX6A2MLdq8x","standard","1","12","HP","6","153.452","159.46","160.265","6.813","0.805","3","36",""
"13","R_WeMiJX6A2MLdq8x","standard","1","13","HP","6","161.267","167.275","167.991","6.724","0.716","3","39",""
"14","R_WeMiJX6A2MLdq8x","standard","1","14","HP","18","168.996","187.003","187.697","18.701","0.694","3","42",""
"15","R_WeMiJX6A2MLdq8x","standard","1","15","HP","12","188.699","200.707","201.554","12.855","0.847","3","45",""
"16","R_WeMiJX6A2MLdq8x","standard","1","16","HP","20","202.563","222.571","223.276","20.713","0.705","3","48",""
"17","R_WeMiJX6A2MLdq8x","standard","1","17","HP","16","224.283","240.29","241.062","16.779","0.772","3","51",""
"18","R_WeMiJX6A2MLdq8x","standard","1","18","HP","6","242.067","248.075","248.887","6.82","0.812","3","54",""
"19","R_WeMiJX6A2MLdq8x","standard","1","19","HP","6","249.891","255.899","256.636","6.745","0.737","3","57",""
"20","R_WeMiJX6A2MLdq8x","standard","1","20","HP","6","257.644","263.652","264.368","6.724","0.716","3","60",""
"21","R_WeMiJX6A2MLdq8x","standard","1","21","HP","18","265.372","283.379","284.123","18.751","0.744","3","63",""
"22","R_WeMiJX6A2MLdq8x","standard","1","22","HP","2","285.132","287.139","287.979","2.847","0.84","3","66",""
"23","R_WeMiJX6A2MLdq8x","standard","1","23","HP","16","288.987","304.995","305.783","16.796","0.788","3","69",""
"24","R_WeMiJX6A2MLdq8x","standard","1","24","HP","18","306.787","324.794","325.698","18.911","0.904","3","72",""
"25","R_WeMiJX6A2MLdq8x","standard","1","25","HP","8","326.707","334.708","335.481","8.774","0.773","3","75",""
"26","R_WeMiJX6A2MLdq8x","standard","1","26","HP","16","336.491","352.499","353.276","16.785","0.777","3","78",""
"27","R_WeMiJX6A2MLdq8x","standard","1","27","HP","18","354.283","372.291","373.06","18.777","0.769","3","81",""
"28","R_WeMiJX6A2MLdq8x","standard","1","28","HP","6","374.07","380.074","380.872","6.802","0.798","3","84",""
"29","R_WeMiJX6A2MLdq8x","standard","1","29","HP","20","381.875","401.882","402.664","20.789","0.782","3","87",""
"30","R_WeMiJX6A2MLdq8x","standard","1","30","HP","16","403.668","419.675","420.46","16.792","0.785","3","90",""
"31","R_WeMiJX6A2MLdq8x","standard","1","31","HP","6","421.468","427.475","428.34","6.872","0.865","3","93",""
"32","R_WeMiJX6A2MLdq8x","standard","1","32","HP","16","429.348","445.355","NA","17.016","NA","0","93",""
"33","R_WeMiJX6A2MLdq8x","standard","1","33","HP","16","447.371","464.227","NA","17.864","NA","0","93",""
"34","R_WeMiJX6A2MLdq8x","standard","1","34","HP","6","467.234","474.227","NA","8.001","NA","0","93",""
"35","R_WeMiJX6A2MLdq8x","standard","1","35","HP","4","477.226","481.229","NA","5.011","NA","0","93",""
"36","R_WeMiJX6A2MLdq8x","standard","1","36","HP","2","483.237","485.243","486.038","2.801","0.795","3","96",""
"37","R_WeMiJX6A2MLdq8x","standard","1","37","HP","20","487.044","507.051","507.826","20.782","0.775","3","99",""
"38","R_WeMiJX6A2MLdq8x","standard","1","38","HP","14","508.836","522.844","523.523","14.687","0.679","3","102",""
"39","R_WeMiJX6A2MLdq8x","standard","1","39","HP","4","524.531","528.54","529.3","4.769","0.76","3","105",""
"40","R_WeMiJX6A2MLdq8x","standard","1","40","HP","12","530.307","542.308","NA","13.002","NA","0","105",""
"41","R_WeMiJX6A2MLdq8x","standard","1","41","HP","10","544.309","554.314","555.183","10.874","0.869","3","108",""
"42","R_WeMiJX6A2MLdq8x","standard","1","42","HP","10","556.187","566.195","566.895","10.708","0.7","3","111",""
"43","R_WeMiJX6A2MLdq8x","standard","1","43","HP","2","567.899","569.907","570.768","2.869","0.861","3","114",""
"44","R_WeMiJX6A2MLdq8x","standard","1","44","HP","6","571.771","577.779","578.568","6.797","0.789","3","117",""
"45","R_WeMiJX6A2MLdq8x","standard","1","45","HP","8","579.579","587.587","588.417","8.838","0.83","3","120",""
"46","R_WeMiJX6A2MLdq8x","standard","1","46","HP","18","589.419","607.426","608.196","18.777","0.77","3","123",""
"47","R_WeMiJX6A2MLdq8x","standard","1","47","HP","8","609.203","617.212","618.044","8.841","0.832","3","126",""
"48","R_WeMiJX6A2MLdq8x","standard","1","48","HP","4","619.05","623.06","623.806","4.756","0.746","3","129",""
"49","R_WeMiJX6A2MLdq8x","standard","1","49","HP","16","624.813","640.819","641.528","16.715","0.709","3","132",""
"50","R_WeMiJX6A2MLdq8x","standard","1","50","HP","12","642.531","654.539","655.273","12.742","0.734","3","135",""
"51","R_WeMiJX6A2MLdq8x","standard","1","51","HP","10","656.283","666.292","667.026","10.743","0.734","3","138",""
"52","R_WeMiJX6A2MLdq8x","standard","1","52","HP","16","668.028","684.035","684.779","16.751","0.744","3","141",""
"53","R_WeMiJX6A2MLdq8x","standard","1","53","HP","2","685.786","687.795","NA","3.017","NA","0","141",""
"54","R_WeMiJX6A2MLdq8x","standard","1","54","HP","12","689.813","701.818","702.558","12.745","0.74","3","144",""
"55","R_WeMiJX6A2MLdq8x","standard","1","55","HP","16","703.564","719.57","720.247","16.683","0.677","3","147",""
"56","R_WeMiJX6A2MLdq8x","standard","1","56","HP","14","721.251","735.259","735.89","14.639","0.631","3","150",""
"57","R_WeMiJX6A2MLdq8x","standard","1","57","HP","16","736.901","752.907","753.675","16.774","0.768","3","153",""
"58","R_WeMiJX6A2MLdq8x","standard","1","58","HP","6","754.683","760.691","NA","7.017","NA","0","153",""
"59","R_WeMiJX6A2MLdq8x","standard","1","59","HP","14","762.708","776.716","777.51","14.802","0.794","3","156",""
"60","R_WeMiJX6A2MLdq8x","standard","1","60","HP","14","778.519","792.521","793.289","14.77","0.768","3","159",""
"61","R_WeMiJX6A2MLdq8x","standard","1","61","HP","16","794.291","810.299","811.018","16.727","0.719","3","162",""
"62","R_WeMiJX6A2MLdq8x","standard","1","62","HP","8","812.027","820.035","820.819","8.792","0.784","3","165",""
"63","R_WeMiJX6A2MLdq8x","standard","1","63","HP","20","821.827","841.835","842.582","20.755","0.747","3","168",""
"64","R_WeMiJX6A2MLdq8x","standard","1","64","HP","12","843.587","855.595","856.335","12.748","0.74","3","171",""
"65","R_WeMiJX6A2MLdq8x","standard","1","65","HP","14","857.34","871.347","872.193","14.853","0.846","3","174",""
"66","R_WeMiJX6A2MLdq8x","standard","1","66","HP","10","873.203","883.212","883.874","10.671","0.662","3","177",""
"67","R_WeMiJX6A2MLdq8x","standard","2","1","LP","1.25738905644119","0","1.267","1.479","1.479","0.212","3","180",NA
"68","R_WeMiJX6A2MLdq8x","standard","2","2","LP","3.49090909090909","2.482","NaN","3.886","1.404","NaN","0","180",NA
"69","R_WeMiJX6A2MLdq8x","standard","2","3","LP","3.49090909090909","4.9","NaN","5.601","0.701","NaN","0","180",NA
"70","R_WeMiJX6A2MLdq8x","standard","2","4","LP","13.0392072382594","6.61","NaN","7.295","0.685","NaN","0","180",NA
"71","R_WeMiJX6A2MLdq8x","standard","2","5","LP","3.49090909090909","8.298","NaN","9.677","1.379","NaN","0","180",NA
"72","R_WeMiJX6A2MLdq8x","standard","2","6","LP","1.25738905644119","10.683","11.946","11.983","1.3","0.037","3","183",NA
"73","R_WeMiJX6A2MLdq8x","standard","2","7","LP","0.264713485566566","12.986","13.258","14.031","1.045","0.773","3","186",NA
"74","R_WeMiJX6A2MLdq8x","standard","2","8","LP","0.661783713916415","15.034","15.698","15.807","0.773","0.109","3","189",NA
"75","R_WeMiJX6A2MLdq8x","standard","2","9","LP","2.15079707022835","16.81","NaN","18.441","1.631","NaN","0","189",NA
"76","R_WeMiJX6A2MLdq8x","standard","2","10","LP","0.264713485566566","19.45","19.723","20.568","1.118","0.845","3","192",NA
"77","R_WeMiJX6A2MLdq8x","standard","2","11","LP","19.8235243429556","21.571","NaN","22.528","0.957","NaN","0","192",NA
"78","R_WeMiJX6A2MLdq8x","standard","2","12","LP","8.51632916846187","23.53","NaN","24.84","1.31","NaN","0","192",NA
"79","R_WeMiJX6A2MLdq8x","standard","2","13","LP","30","25.85","NaN","27.048","1.198","NaN","0","192",NA
"80","R_WeMiJX6A2MLdq8x","standard","2","14","LP","1.25738905644119","28.059","29.322","29.409","1.35","0.087","3","195",NA
"81","R_WeMiJX6A2MLdq8x","standard","2","15","LP","0.661783713916415","30.419","31.091","31.448","1.029","0.357","3","198",NA
"82","R_WeMiJX6A2MLdq8x","standard","2","16","LP","2.15079707022835","32.458","NaN","34.273","1.815","NaN","0","198",NA
"83","R_WeMiJX6A2MLdq8x","standard","2","17","LP","0.661783713916415","35.282","35.946","36.668","1.386","0.722","3","201",NA
"84","R_WeMiJX6A2MLdq8x","standard","2","18","LP","0.661783713916415","37.675","38.338","38.921","1.246","0.583","3","204",NA
"85","R_WeMiJX6A2MLdq8x","standard","2","19","LP","0.264713485566566","39.93","40.203","40.945","1.015","0.742","3","207",NA
"86","R_WeMiJX6A2MLdq8x","standard","2","20","LP","2.15079707022835","41.954","NaN","43.482","1.528","NaN","0","207",NA
"87","R_WeMiJX6A2MLdq8x","standard","2","21","LP","2.15079707022835","44.49","NaN","45.827","1.337","NaN","0","207",NA
"88","R_WeMiJX6A2MLdq8x","standard","2","22","LP","19.8235243429556","46.835","NaN","48.066","1.231","NaN","0","207",NA
"89","R_WeMiJX6A2MLdq8x","standard","2","23","LP","2.15079707022835","49.074","NaN","50.243","1.169","NaN","0","207",NA
"90","R_WeMiJX6A2MLdq8x","standard","2","24","LP","8.51632916846187","51.25","NaN","52.493","1.243","NaN","0","207",NA
"91","R_WeMiJX6A2MLdq8x","standard","2","25","LP","30","53.499","NaN","54.805","1.306","NaN","0","207",NA
"92","R_WeMiJX6A2MLdq8x","standard","2","26","LP","30","55.811","NaN","57.196","1.385","NaN","0","207",NA
"93","R_WeMiJX6A2MLdq8x","standard","2","27","LP","8.51632916846187","58.202","NaN","59.451","1.249","NaN","0","207",NA
"94","R_WeMiJX6A2MLdq8x","standard","2","28","LP","0.661783713916415","60.458","61.122","61.644","1.186","0.522","3","210",NA
"95","R_WeMiJX6A2MLdq8x","standard","2","29","LP","5.5010771219302","62.65","NaN","63.66","1.01","NaN","0","210",NA
"96","R_WeMiJX6A2MLdq8x","standard","2","30","LP","8.51632916846187","64.666","NaN","66.789","2.123","NaN","0","210",NA
"97","R_WeMiJX6A2MLdq8x","standard","2","31","LP","19.8235243429556","67.794","NaN","69.324","1.53","NaN","0","210",NA
"98","R_WeMiJX6A2MLdq8x","standard","2","32","LP","5.5010771219302","70.331","NaN","71.661","1.33","NaN","0","210",NA
"99","R_WeMiJX6A2MLdq8x","standard","2","33","LP","1.25738905644119","72.667","73.936","74.11","1.443","0.174","3","213",NA
"100","R_WeMiJX6A2MLdq8x","standard","2","34","LP","3.49090909090909","75.111","NaN","77.198","2.087","NaN","0","213",NA
"101","R_WeMiJX6A2MLdq8x","standard","2","35","LP","5.5010771219302","78.202","NaN","79.766","1.564","NaN","0","213",NA
"102","R_WeMiJX6A2MLdq8x","standard","2","36","LP","3.49090909090909","80.77","NaN","82.038","1.268","NaN","0","213",NA
"103","R_WeMiJX6A2MLdq8x","standard","2","37","LP","3.49090909090909","83.042","NaN","84.27","1.228","NaN","0","213",NA
"104","R_WeMiJX6A2MLdq8x","standard","2","38","LP","0.264713485566566","85.274","85.546","86.399","1.125","0.853","3","216",NA
"105","R_WeMiJX6A2MLdq8x","standard","2","39","LP","1.25738905644119","87.403","NaN","88.407","1.004","NaN","0","216",NA
"106","R_WeMiJX6A2MLdq8x","standard","2","40","LP","0.264713485566566","89.41","89.682","90.447","1.037","0.765","3","219",NA
"107","R_WeMiJX6A2MLdq8x","standard","2","41","LP","19.8235243429556","91.45","NaN","92.552","1.102","NaN","0","219",NA
"108","R_WeMiJX6A2MLdq8x","standard","2","42","LP","3.49090909090909","93.563","NaN","94.705","1.142","NaN","0","219",NA
"109","R_WeMiJX6A2MLdq8x","standard","2","43","LP","0.264713485566566","95.713","95.986","96.721","1.008","0.735","3","222",NA
"110","R_WeMiJX6A2MLdq8x","standard","2","44","LP","30","97.73","NaN","98.768","1.038","NaN","0","222",NA
"111","R_WeMiJX6A2MLdq8x","standard","2","45","LP","2.15079707022835","99.771","NaN","101.129","1.358","NaN","0","222",NA
"112","R_WeMiJX6A2MLdq8x","standard","2","46","LP","3.49090909090909","102.138","NaN","103.329","1.191","NaN","0","222",NA
"113","R_WeMiJX6A2MLdq8x","standard","2","47","LP","0.264713485566566","104.339","104.604","105.345","1.006","0.741","3","225",NA
"114","R_WeMiJX6A2MLdq8x","standard","2","48","LP","19.8235243429556","106.354","NaN","107.721","1.367","NaN","0","225",NA
"115","R_WeMiJX6A2MLdq8x","standard","2","49","LP","19.8235243429556","108.724","NaN","109.599","0.875","NaN","0","225",NA
"116","R_WeMiJX6A2MLdq8x","standard","2","50","LP","1.25738905644119","110.605","111.866","112.078","1.473","0.212","3","228",NA
"117","R_WeMiJX6A2MLdq8x","standard","2","51","LP","30","113.082","NaN","114.297","1.215","NaN","0","228",NA
"118","R_WeMiJX6A2MLdq8x","standard","2","52","LP","0.661783713916415","115.306","115.97","116.722","1.416","0.752","3","231",NA
"119","R_WeMiJX6A2MLdq8x","standard","2","53","LP","30","117.73","NaN","119.276","1.546","NaN","0","231",NA
"120","R_WeMiJX6A2MLdq8x","standard","2","54","LP","1.25738905644119","120.283","NaN","121.402","1.119","NaN","0","231",NA
"121","R_WeMiJX6A2MLdq8x","standard","2","55","LP","3.49090909090909","122.403","NaN","123.859","1.456","NaN","0","231",NA
"122","R_WeMiJX6A2MLdq8x","standard","2","56","LP","2.15079707022835","124.866","NaN","126.564","1.698","NaN","0","231",NA
"123","R_WeMiJX6A2MLdq8x","standard","2","57","LP","3.49090909090909","127.57","NaN","129.347","1.777","NaN","0","231",NA
"124","R_WeMiJX6A2MLdq8x","standard","2","58","LP","3.49090909090909","130.355","NaN","133.84","3.485","NaN","0","231",NA
"125","R_WeMiJX6A2MLdq8x","standard","2","59","LP","30","134.843","NaN","135.542","0.699","NaN","0","231",NA
"126","R_WeMiJX6A2MLdq8x","standard","2","60","LP","30","136.546","NaN","138.117","1.571","NaN","0","231",NA
"127","R_WeMiJX6A2MLdq8x","standard","2","61","LP","13.0392072382594","139.122","NaN","140.892","1.77","NaN","0","231",NA
"128","R_WeMiJX6A2MLdq8x","standard","2","62","LP","19.8235243429556","141.902","NaN","142.704","0.802","NaN","0","231",NA
"129","R_WeMiJX6A2MLdq8x","standard","2","63","LP","0.264713485566566","143.707","143.978","144.837","1.13","0.859","3","234",NA
"130","R_WeMiJX6A2MLdq8x","standard","2","64","LP","5.5010771219302","145.842","NaN","147.405","1.563","NaN","0","234",NA
"131","R_WeMiJX6A2MLdq8x","standard","2","65","LP","2.15079707022835","148.411","NaN","150.27","1.859","NaN","0","234",NA
"132","R_WeMiJX6A2MLdq8x","standard","2","66","LP","5.5010771219302","151.275","NaN","153.35","2.075","NaN","0","234",NA
"133","R_WeMiJX6A2MLdq8x","standard","2","67","LP","3.49090909090909","154.355","NaN","155.88","1.525","NaN","0","234",NA
"134","R_WeMiJX6A2MLdq8x","standard","2","68","LP","19.8235243429556","156.882","NaN","158.608","1.726","NaN","0","234",NA
"135","R_WeMiJX6A2MLdq8x","standard","2","69","LP","5.5010771219302","159.609","NaN","161.382","1.773","NaN","0","234",NA
"136","R_WeMiJX6A2MLdq8x","standard","2","70","LP","30","162.386","NaN","163.903","1.517","NaN","0","234",NA
"137","R_WeMiJX6A2MLdq8x","standard","2","71","LP","19.8235243429556","164.907","NaN","166.175","1.268","NaN","0","234",NA
"138","R_WeMiJX6A2MLdq8x","standard","2","72","LP","2.15079707022835","167.179","NaN","168.855","1.676","NaN","0","234",NA
"139","R_WeMiJX6A2MLdq8x","standard","2","73","LP","0.661783713916415","169.858","170.522","171.274","1.416","0.752","3","237",NA
"140","R_WeMiJX6A2MLdq8x","standard","2","74","LP","30","172.282","NaN","173.425","1.143","NaN","0","237",NA
"141","R_WeMiJX6A2MLdq8x","standard","2","75","LP","5.5010771219302","174.434","NaN","175.577","1.143","NaN","0","237",NA
"142","R_WeMiJX6A2MLdq8x","standard","2","76","LP","0.661783713916415","176.587","177.25","177.92","1.333","0.67","3","240",NA
"143","R_WeMiJX6A2MLdq8x","standard","2","77","LP","2.15079707022835","178.922","NaN","180.377","1.455","NaN","0","240",NA
"144","R_WeMiJX6A2MLdq8x","standard","2","78","LP","5.5010771219302","181.386","NaN","183.306","1.92","NaN","0","240",NA
"145","R_WeMiJX6A2MLdq8x","standard","2","79","LP","3.49090909090909","184.308","NaN","186.258","1.95","NaN","0","240",NA
"146","R_WeMiJX6A2MLdq8x","standard","2","80","LP","3.49090909090909","187.266","NaN","188.554","1.288","NaN","0","240",NA
"147","R_WeMiJX6A2MLdq8x","standard","2","81","LP","0.661783713916415","189.563","190.226","190.643","1.08","0.417","3","243",NA
"148","R_WeMiJX6A2MLdq8x","standard","2","82","LP","0.661783713916415","191.651","192.314","192.866","1.215","0.552","3","246",NA
"149","R_WeMiJX6A2MLdq8x","standard","2","83","LP","0.264713485566566","193.874","194.147","194.582","0.708","0.435","3","249",NA
"150","R_WeMiJX6A2MLdq8x","standard","2","84","LP","2.15079707022835","195.586","NaN","196.491","0.905","NaN","0","249",NA
"151","R_WeMiJX6A2MLdq8x","standard","2","85","LP","2.15079707022835","197.498","NaN","198.771","1.273","NaN","0","249",NA
"152","R_WeMiJX6A2MLdq8x","standard","2","86","LP","3.49090909090909","199.778","NaN","200.54","0.762","NaN","0","249",NA
"153","R_WeMiJX6A2MLdq8x","standard","2","87","LP","30","201.547","NaN","202.72","1.173","NaN","0","249",NA
"154","R_WeMiJX6A2MLdq8x","standard","2","88","LP","8.51632916846187","203.723","NaN","204.557","0.834","NaN","0","249",NA
"155","R_WeMiJX6A2MLdq8x","standard","2","89","LP","0.661783713916415","205.564","206.234","206.822","1.258","0.588","3","252",NA
"156","R_WeMiJX6A2MLdq8x","standard","2","90","LP","8.51632916846187","207.826","NaN","208.813","0.987","NaN","0","252",NA
"157","R_WeMiJX6A2MLdq8x","standard","2","91","LP","0.661783713916415","209.818","210.482","210.949","1.131","0.467","3","255",NA
"158","R_WeMiJX6A2MLdq8x","standard","2","92","LP","2.15079707022835","211.954","NaN","213.093","1.139","NaN","0","255",NA
"159","R_WeMiJX6A2MLdq8x","standard","2","93","LP","5.5010771219302","214.098","NaN","215.036","0.938","NaN","0","255",NA
"160","R_WeMiJX6A2MLdq8x","standard","2","94","LP","19.8235243429556","216.042","NaN","216.828","0.786","NaN","0","255",NA
"161","R_WeMiJX6A2MLdq8x","standard","2","95","LP","8.51632916846187","217.834","NaN","218.981","1.147","NaN","0","255",NA
"162","R_WeMiJX6A2MLdq8x","standard","2","96","LP","8.51632916846187","219.985","NaN","220.646","0.661","NaN","0","255",NA
"163","R_WeMiJX6A2MLdq8x","standard","2","97","LP","19.8235243429556","221.65","NaN","222.911","1.261","NaN","0","255",NA
"164","R_WeMiJX6A2MLdq8x","standard","2","98","LP","8.51632916846187","223.914","NaN","225.094","1.18","NaN","0","255",NA
"165","R_WeMiJX6A2MLdq8x","standard","2","99","LP","2.15079707022835","226.099","NaN","227.414","1.315","NaN","0","255",NA
"166","R_WeMiJX6A2MLdq8x","standard","2","100","LP","19.8235243429556","228.419","NaN","229.358","0.939","NaN","0","255",NA
"167","R_WeMiJX6A2MLdq8x","standard","2","101","LP","0.661783713916415","230.362","231.026","231.824","1.462","0.798","3","258",NA
"168","R_WeMiJX6A2MLdq8x","standard","2","102","LP","1.25738905644119","232.826","234.09","234.263","1.437","0.173","3","261",NA
"169","R_WeMiJX6A2MLdq8x","standard","2","103","LP","2.15079707022835","235.267","NaN","236.984","1.717","NaN","0","261",NA
"170","R_WeMiJX6A2MLdq8x","standard","2","104","LP","19.8235243429556","237.987","NaN","239.321","1.334","NaN","0","261",NA
"171","R_WeMiJX6A2MLdq8x","standard","2","105","LP","5.5010771219302","240.325","NaN","241.619","1.294","NaN","0","261",NA
"172","R_WeMiJX6A2MLdq8x","standard","2","106","LP","13.0392072382594","242.626","NaN","244.728","2.102","NaN","0","261",NA
"173","R_WeMiJX6A2MLdq8x","standard","2","107","LP","5.5010771219302","245.731","NaN","246.888","1.157","NaN","0","261",NA
"174","R_WeMiJX6A2MLdq8x","standard","2","108","LP","30","247.899","NaN","249.321","1.422","NaN","0","261",NA
"175","R_WeMiJX6A2MLdq8x","standard","2","109","LP","19.8235243429556","250.33","NaN","251.866","1.536","NaN","0","261",NA
"176","R_WeMiJX6A2MLdq8x","standard","2","110","LP","30","252.874","NaN","254.138","1.264","NaN","0","261",NA
"177","R_WeMiJX6A2MLdq8x","standard","2","111","LP","0.661783713916415","255.146","255.81","256.457","1.311","0.647","3","264",NA
"178","R_WeMiJX6A2MLdq8x","standard","2","112","LP","3.49090909090909","257.466","NaN","259.009","1.543","NaN","0","264",NA
"179","R_WeMiJX6A2MLdq8x","standard","2","113","LP","30","260.018","NaN","261.524","1.506","NaN","0","264",NA
"180","R_WeMiJX6A2MLdq8x","standard","2","114","LP","19.8235243429556","262.53","NaN","263.773","1.243","NaN","0","264",NA
"181","R_WeMiJX6A2MLdq8x","standard","2","115","LP","5.5010771219302","264.778","NaN","266.115","1.337","NaN","0","264",NA
"182","R_WeMiJX6A2MLdq8x","standard","2","116","LP","2.15079707022835","267.122","NaN","268.429","1.307","NaN","0","264",NA
"183","R_WeMiJX6A2MLdq8x","standard","2","117","LP","5.5010771219302","269.435","NaN","270.662","1.227","NaN","0","264",NA
"184","R_WeMiJX6A2MLdq8x","standard","2","118","LP","0.264713485566566","271.666","271.938","272.708","1.042","0.77","3","267",NA
"185","R_WeMiJX6A2MLdq8x","standard","2","119","LP","5.5010771219302","273.712","NaN","274.716","1.004","NaN","0","267",NA
"186","R_WeMiJX6A2MLdq8x","standard","2","120","LP","5.5010771219302","275.723","NaN","276.939","1.216","NaN","0","267",NA
"187","R_WeMiJX6A2MLdq8x","standard","2","121","LP","30","277.946","NaN","278.699","0.753","NaN","0","267",NA
"188","R_WeMiJX6A2MLdq8x","standard","2","122","LP","0.264713485566566","279.713","279.986","280.812","1.099","0.826","3","270",NA
"189","R_WeMiJX6A2MLdq8x","standard","2","123","LP","5.5010771219302","281.817","NaN","282.591","0.774","NaN","0","270",NA
"190","R_WeMiJX6A2MLdq8x","standard","2","124","LP","1.25738905644119","283.595","NaN","284.845","1.25","NaN","0","270",NA
"191","R_WeMiJX6A2MLdq8x","standard","2","125","LP","0.661783713916415","285.85","286.515","287.072","1.222","0.557","3","273",NA
"192","R_WeMiJX6A2MLdq8x","standard","2","126","LP","5.5010771219302","288.074","NaN","288.846","0.772","NaN","0","273",NA
"193","R_WeMiJX6A2MLdq8x","standard","2","127","LP","8.51632916846187","289.85","NaN","291.63","1.78","NaN","0","273",NA
"194","R_WeMiJX6A2MLdq8x","standard","2","128","LP","19.8235243429556","292.635","NaN","293.845","1.21","NaN","0","273",NA
"195","R_WeMiJX6A2MLdq8x","standard","2","129","LP","13.0392072382594","294.851","NaN","296.286","1.435","NaN","0","273",NA
"196","R_WeMiJX6A2MLdq8x","standard","2","130","LP","0.264713485566566","297.29","297.562",NA,"1.284",NA,"0","273",NA
"197","R_WeMiJX6A2MLdq8x","standard","2","131","LP","3.49090909090909","299.578","NaN","300.831","1.253","NaN","0","273",NA
"198","R_WeMiJX6A2MLdq8x","standard","2","132","LP","1.25738905644119","301.835","NaN","302.863","1.028","NaN","0","273",NA
"199","R_WeMiJX6A2MLdq8x","standard","2","133","LP","1.25738905644119","303.866","305.13","305.39","1.524","0.26","3","276",NA
"200","R_WeMiJX6A2MLdq8x","standard","2","134","LP","13.0392072382594","306.395","NaN","307.665","1.27","NaN","0","276",NA
"201","R_WeMiJX6A2MLdq8x","standard","2","135","LP","8.51632916846187","308.674","NaN","309.855","1.181","NaN","0","276",NA
"202","R_WeMiJX6A2MLdq8x","standard","2","136","LP","3.49090909090909","310.858","NaN","312.248","1.39","NaN","0","276",NA
"203","R_WeMiJX6A2MLdq8x","standard","2","137","LP","13.0392072382594","313.25","NaN","314.504","1.254","NaN","0","276",NA
"204","R_WeMiJX6A2MLdq8x","standard","2","138","LP","19.8235243429556","315.509","NaN","316.791","1.282","NaN","0","276",NA
"205","R_WeMiJX6A2MLdq8x","standard","2","139","LP","13.0392072382594","317.794","NaN","319.22","1.426","NaN","0","276",NA
"206","R_WeMiJX6A2MLdq8x","standard","2","140","LP","2.15079707022835","320.226","NaN","321.624","1.398","NaN","0","276",NA
"207","R_WeMiJX6A2MLdq8x","standard","2","141","LP","2.15079707022835","322.637","NaN","324.057","1.42","NaN","0","276",NA
"208","R_WeMiJX6A2MLdq8x","standard","2","142","LP","0.661783713916415","325.067","325.731","326.466","1.399","0.735","3","279",NA
"209","R_WeMiJX6A2MLdq8x","standard","2","143","LP","3.49090909090909","327.474","NaN","328.668","1.194","NaN","0","279",NA
"210","R_WeMiJX6A2MLdq8x","standard","2","144","LP","13.0392072382594","329.675","NaN","331.13","1.455","NaN","0","279",NA
"211","R_WeMiJX6A2MLdq8x","standard","2","145","LP","8.51632916846187","332.139","NaN","333.459","1.32","NaN","0","279",NA
"212","R_WeMiJX6A2MLdq8x","standard","2","146","LP","2.15079707022835","334.467","NaN","335.813","1.346","NaN","0","279",NA
"213","R_WeMiJX6A2MLdq8x","standard","2","147","LP","0.661783713916415","336.818","337.482","338.147","1.329","0.665","3","282",NA
"214","R_WeMiJX6A2MLdq8x","standard","2","148","LP","30","339.154","NaN","340.66","1.506","NaN","0","282",NA
"215","R_WeMiJX6A2MLdq8x","standard","2","149","LP","2.15079707022835","341.667","NaN","343.138","1.471","NaN","0","282",NA
"216","R_WeMiJX6A2MLdq8x","standard","2","150","LP","13.0392072382594","344.147","NaN","345.371","1.224","NaN","0","282",NA
"217","R_WeMiJX6A2MLdq8x","standard","2","151","LP","3.49090909090909","346.378","NaN","347.771","1.393","NaN","0","282",NA
"218","R_WeMiJX6A2MLdq8x","standard","2","152","LP","0.264713485566566","348.778","349.05","349.869","1.091","0.819","3","285",NA
"219","R_WeMiJX6A2MLdq8x","standard","2","153","LP","30","350.875","NaN","352.46","1.585","NaN","0","285",NA
"220","R_WeMiJX6A2MLdq8x","standard","2","154","LP","5.5010771219302","353.466","NaN","354.59","1.124","NaN","0","285",NA
"221","R_WeMiJX6A2MLdq8x","standard","2","155","LP","5.5010771219302","355.594","NaN","356.339","0.745","NaN","0","285",NA
"222","R_WeMiJX6A2MLdq8x","standard","2","156","LP","2.15079707022835","357.347","NaN","359.1","1.753","NaN","0","285",NA
"223","R_WeMiJX6A2MLdq8x","standard","2","157","LP","8.51632916846187","360.108","NaN","361.375","1.267","NaN","0","285",NA
"224","R_WeMiJX6A2MLdq8x","standard","2","158","LP","3.49090909090909","362.378","NaN","363.877","1.499","NaN","0","285",NA
"225","R_WeMiJX6A2MLdq8x","standard","2","159","LP","1.25738905644119","364.882","366.147","366.254","1.372","0.107","3","288",NA
"226","R_WeMiJX6A2MLdq8x","standard","2","160","LP","3.49090909090909","367.258","NaN","368.76","1.502","NaN","0","288",NA
"227","R_WeMiJX6A2MLdq8x","standard","2","161","LP","19.8235243429556","369.763","NaN","371.174","1.411","NaN","0","288",NA
"228","R_WeMiJX6A2MLdq8x","standard","2","162","LP","3.49090909090909","372.179","NaN","373.518","1.339","NaN","0","288",NA
"229","R_WeMiJX6A2MLdq8x","standard","2","163","LP","2.15079707022835","374.522","NaN","376.006","1.484","NaN","0","288",NA
"230","R_WeMiJX6A2MLdq8x","standard","2","164","LP","30","377.01","NaN","378.607","1.597","NaN","0","288",NA
"231","R_WeMiJX6A2MLdq8x","standard","2","165","LP","1.25738905644119","379.61","380.874","381.079","1.469","0.205","3","291",NA
"232","R_WeMiJX6A2MLdq8x","standard","2","166","LP","2.15079707022835","382.083","NaN","383.976","1.893","NaN","0","291",NA
"233","R_WeMiJX6A2MLdq8x","standard","2","167","LP","19.8235243429556","384.979","NaN","386.472","1.493","NaN","0","291",NA
"234","R_WeMiJX6A2MLdq8x","standard","2","168","LP","2.15079707022835","387.474","NaN","389.104","1.63","NaN","0","291",NA
"235","R_WeMiJX6A2MLdq8x","standard","2","169","LP","19.8235243429556","390.107","NaN","392.056","1.949","NaN","0","291",NA
"236","R_WeMiJX6A2MLdq8x","standard","2","170","LP","19.8235243429556","393.058","NaN","394.692","1.634","NaN","0","291",NA
"237","R_WeMiJX6A2MLdq8x","standard","2","171","LP","3.49090909090909","395.699","NaN","397.338","1.639","NaN","0","291",NA
"238","R_WeMiJX6A2MLdq8x","standard","2","172","LP","5.5010771219302","398.347","NaN","400.285","1.938","NaN","0","291",NA
"239","R_WeMiJX6A2MLdq8x","standard","2","173","LP","8.51632916846187","401.29","NaN","402.665","1.375","NaN","0","291",NA
"240","R_WeMiJX6A2MLdq8x","standard","2","174","LP","8.51632916846187","403.674","NaN","405.162","1.488","NaN","0","291",NA
"241","R_WeMiJX6A2MLdq8x","standard","2","175","LP","0.264713485566566","406.171","406.443","407.333","1.162","0.89","3","294",NA
"242","R_WeMiJX6A2MLdq8x","standard","2","176","LP","30","408.338","NaN","409.73","1.392","NaN","0","294",NA
"243","R_WeMiJX6A2MLdq8x","standard","2","177","LP","30","410.737","NaN","412.281","1.544","NaN","0","294",NA
"244","R_WeMiJX6A2MLdq8x","standard","2","178","LP","0.264713485566566","413.29","413.562","414.445","1.155","0.883","3","297",NA
"245","R_WeMiJX6A2MLdq8x","standard","2","179","LP","13.0392072382594","415.45","NaN","416.939","1.489","NaN","0","297",NA
"246","R_WeMiJX6A2MLdq8x","standard","2","180","LP","30","417.946","NaN","418.651","0.705","NaN","0","297",NA
"247","R_WeMiJX6A2MLdq8x","standard","2","181","LP","1.25738905644119","419.657","420.922","421.154","1.497","0.232","3","300",NA
"248","R_WeMiJX6A2MLdq8x","standard","2","182","LP","30","422.162","NaN","423.919","1.757","NaN","0","300",NA
"249","R_WeMiJX6A2MLdq8x","standard","2","183","LP","1.25738905644119","424.922","426.185","426.464","1.542","0.279","3","303",NA
"250","R_WeMiJX6A2MLdq8x","standard","2","184","LP","0.661783713916415","427.474","428.138","428.956","1.482","0.818","3","306",NA
"251","R_WeMiJX6A2MLdq8x","standard","2","185","LP","1.25738905644119","429.961","431.226","431.91","1.949","0.684","3","309",NA
"252","R_WeMiJX6A2MLdq8x","standard","2","186","LP","13.0392072382594","432.913","NaN","434.037","1.124","NaN","0","309",NA
"253","R_WeMiJX6A2MLdq8x","standard","2","187","LP","5.5010771219302","435.042","NaN","436.553","1.511","NaN","0","309",NA
"254","R_WeMiJX6A2MLdq8x","standard","2","188","LP","1.25738905644119","437.562","438.822","439.016","1.454","0.194","3","312",NA
"255","R_WeMiJX6A2MLdq8x","standard","2","189","LP","19.8235243429556","440.026","NaN","441.446","1.42","NaN","0","312",NA
"256","R_WeMiJX6A2MLdq8x","standard","2","190","LP","0.661783713916415","442.449","443.113","443.855","1.406","0.742","3","315",NA
"257","R_WeMiJX6A2MLdq8x","standard","2","191","LP","30","444.857","NaN","446.182","1.325","NaN","0","315",NA
"258","R_WeMiJX6A2MLdq8x","standard","2","192","LP","13.0392072382594","447.186","NaN","448.507","1.321","NaN","0","315",NA
"259","R_WeMiJX6A2MLdq8x","standard","2","193","LP","3.49090909090909","449.508","NaN","450.694","1.186","NaN","0","315",NA
"260","R_WeMiJX6A2MLdq8x","standard","2","194","LP","0.264713485566566","451.697","451.969","452.764","1.067","0.795","3","318",NA
"261","R_WeMiJX6A2MLdq8x","standard","2","195","LP","2.15079707022835","453.77","NaN","455.008","1.238","NaN","0","318",NA
"262","R_WeMiJX6A2MLdq8x","standard","2","196","LP","0.661783713916415","456.009","456.674","457.319","1.31","0.645","3","321",NA
"263","R_WeMiJX6A2MLdq8x","standard","2","197","LP","13.0392072382594","458.322","NaN","459.591","1.269","NaN","0","321",NA
"264","R_WeMiJX6A2MLdq8x","standard","2","198","LP","2.15079707022835","460.601","NaN","461.632","1.031","NaN","0","321",NA
"265","R_WeMiJX6A2MLdq8x","standard","2","199","LP","3.49090909090909","462.642","NaN","463.704","1.062","NaN","0","321",NA
"266","R_WeMiJX6A2MLdq8x","standard","2","200","LP","1.25738905644119","464.708","NaN","465.952","1.244","NaN","0","321",NA
"267","R_WeMiJX6A2MLdq8x","standard","2","201","LP","5.5010771219302","466.961","NaN","468.104","1.143","NaN","0","321",NA
"268","R_WeMiJX6A2MLdq8x","standard","2","202","LP","8.51632916846187","469.107","NaN","470.425","1.318","NaN","0","321",NA
"269","R_WeMiJX6A2MLdq8x","standard","2","203","LP","1.25738905644119","471.427","472.69","473.057","1.63","0.367","3","324",NA
"270","R_WeMiJX6A2MLdq8x","standard","2","204","LP","2.15079707022835","474.067","NaN","475.409","1.342","NaN","0","324",NA
"271","R_WeMiJX6A2MLdq8x","standard","2","205","LP","30","476.413","NaN","477.74","1.327","NaN","0","324",NA
"272","R_WeMiJX6A2MLdq8x","standard","2","206","LP","8.51632916846187","478.746","NaN","480.039","1.293","NaN","0","324",NA
"273","R_WeMiJX6A2MLdq8x","standard","2","207","LP","0.264713485566566","481.042","481.308","482.122","1.08","0.814","3","327",NA
"274","R_WeMiJX6A2MLdq8x","standard","2","208","LP","30","483.13","NaN","484.531","1.401","NaN","0","327",NA
"275","R_WeMiJX6A2MLdq8x","standard","2","209","LP","0.264713485566566","485.538","485.803","486.693","1.155","0.89","3","330",NA
"276","R_WeMiJX6A2MLdq8x","standard","2","210","LP","8.51632916846187","487.698","NaN","489.051","1.353","NaN","0","330",NA
"277","R_WeMiJX6A2MLdq8x","standard","2","211","LP","2.15079707022835","490.059","NaN","491.476","1.417","NaN","0","330",NA
"278","R_WeMiJX6A2MLdq8x","standard","2","212","LP","30","492.482","NaN","493.934","1.452","NaN","0","330",NA
"279","R_WeMiJX6A2MLdq8x","standard","2","213","LP","0.661783713916415","494.938","495.602","496.316","1.378","0.714","3","333",NA
"280","R_WeMiJX6A2MLdq8x","standard","2","214","LP","2.15079707022835","497.321","NaN","498.539","1.218","NaN","0","333",NA
"281","R_WeMiJX6A2MLdq8x","standard","2","215","LP","19.8235243429556","499.546","NaN","501.116","1.57","NaN","0","333",NA
"282","R_WeMiJX6A2MLdq8x","standard","2","216","LP","13.0392072382594","502.12","NaN","503.869","1.749","NaN","0","333",NA
"283","R_WeMiJX6A2MLdq8x","standard","2","217","LP","0.264713485566566","504.874","505.146","506.042","1.168","0.896","3","336",NA
"284","R_WeMiJX6A2MLdq8x","standard","2","218","LP","13.0392072382594","507.05","NaN","508.581","1.531","NaN","0","336",NA
"285","R_WeMiJX6A2MLdq8x","standard","2","219","LP","13.0392072382594","509.586","NaN","511.157","1.571","NaN","0","336",NA
"286","R_WeMiJX6A2MLdq8x","standard","2","220","LP","0.661783713916415","512.163","512.826","513.591","1.428","0.765","3","339",NA
"287","R_WeMiJX6A2MLdq8x","standard","2","221","LP","19.8235243429556","514.594","NaN","516.537","1.943","NaN","0","339",NA
"288","R_WeMiJX6A2MLdq8x","standard","2","222","LP","3.49090909090909","517.546","NaN","519.247","1.701","NaN","0","339",NA
"289","R_WeMiJX6A2MLdq8x","standard","2","223","LP","0.264713485566566","520.25","520.52","521.382","1.132","0.862","3","342",NA
"290","R_WeMiJX6A2MLdq8x","standard","2","224","LP","13.0392072382594","522.386","NaN","523.817","1.431","NaN","0","342",NA
"291","R_WeMiJX6A2MLdq8x","standard","2","225","LP","2.15079707022835","524.821","NaN","526.223","1.402","NaN","0","342",NA
"292","R_WeMiJX6A2MLdq8x","standard","2","226","LP","13.0392072382594","527.226","NaN","528.663","1.437","NaN","0","342",NA
"293","R_WeMiJX6A2MLdq8x","standard","2","227","LP","30","529.674","NaN","531.097","1.423","NaN","0","342",NA
"294","R_WeMiJX6A2MLdq8x","standard","2","228","LP","8.51632916846187","532.105","NaN","533.59","1.485","NaN","0","342",NA
"295","R_WeMiJX6A2MLdq8x","standard","2","229","LP","0.661783713916415","534.593","535.258","536.108","1.515","0.85","3","345",NA
"296","R_WeMiJX6A2MLdq8x","standard","2","230","LP","8.51632916846187","537.112","NaN","538.824","1.712","NaN","0","345",NA
"297","R_WeMiJX6A2MLdq8x","standard","2","231","LP","2.15079707022835","539.834","NaN","541.489","1.655","NaN","0","345",NA
"298","R_WeMiJX6A2MLdq8x","standard","2","232","LP","2.15079707022835","542.501","NaN","543.674","1.173","NaN","0","345",NA
"299","R_WeMiJX6A2MLdq8x","standard","2","233","LP","19.8235243429556","544.682","NaN","545.961","1.279","NaN","0","345",NA
"300","R_WeMiJX6A2MLdq8x","standard","2","234","LP","0.661783713916415","546.97","547.635","548.454","1.484","0.819","3","348",NA
"301","R_WeMiJX6A2MLdq8x","standard","2","235","LP","0.661783713916415","549.457","550.122","550.977","1.52","0.855","3","351",NA
"302","R_WeMiJX6A2MLdq8x","standard","2","236","LP","3.49090909090909","551.986","NaN","553.595","1.609","NaN","0","351",NA
"303","R_WeMiJX6A2MLdq8x","standard","2","237","LP","2.15079707022835","554.612","NaN","555.395","0.783","NaN","0","351",NA
"304","R_WeMiJX6A2MLdq8x","standard","2","238","LP","30","556.402","NaN","557.954","1.552","NaN","0","351",NA
"305","R_WeMiJX6A2MLdq8x","standard","2","239","LP","1.25738905644119","558.962","560.226","560.914","1.952","0.688","3","354",NA
"306","R_WeMiJX6A2MLdq8x","standard","2","240","LP","13.0392072382594","561.917","NaN","563.509","1.592","NaN","0","354",NA
"307","R_WeMiJX6A2MLdq8x","standard","2","241","LP","19.8235243429556","564.514","NaN","566.483","1.969","NaN","0","354",NA
"308","R_WeMiJX6A2MLdq8x","standard","2","242","LP","0.661783713916415","567.49","568.154","569.067","1.577","0.913","3","357",NA
"309","R_WeMiJX6A2MLdq8x","standard","2","243","LP","0.264713485566566","570.074","570.346","571.299","1.225","0.953","3","360",NA
"310","R_WeMiJX6A2MLdq8x","standard","2","244","LP","5.5010771219302","572.307","NaN","573.796","1.489","NaN","0","360",NA
"311","R_WeMiJX6A2MLdq8x","standard","2","245","LP","0.661783713916415","574.802","575.466","576.181","1.379","0.715","3","363",NA
"312","R_WeMiJX6A2MLdq8x","standard","2","246","LP","8.51632916846187","577.186","NaN","579.27","2.084","NaN","0","363",NA
"313","R_WeMiJX6A2MLdq8x","standard","2","247","LP","0.264713485566566","580.274","580.547","581.285","1.011","0.738","3","366",NA
"314","R_WeMiJX6A2MLdq8x","standard","2","248","LP","30","582.29","NaN","584.005","1.715","NaN","0","366",NA
"315","R_WeMiJX6A2MLdq8x","standard","2","249","LP","13.0392072382594","585.01","NaN","586.574","1.564","NaN","0","366",NA
"316","R_WeMiJX6A2MLdq8x","standard","2","250","LP","8.51632916846187","587.578","NaN","589.261","1.683","NaN","0","366",NA
"317","R_WeMiJX6A2MLdq8x","standard","2","251","LP","13.0392072382594","590.266","NaN","592.11","1.844","NaN","0","366",NA
"318","R_WeMiJX6A2MLdq8x","standard","2","252","LP","1.25738905644119","593.113","594.378","594.514","1.401","0.136","3","369",NA
"319","R_WeMiJX6A2MLdq8x","standard","2","253","LP","0.661783713916415","595.522","596.186","597.167","1.645","0.981","3","372",NA
