"","subject_id","condition","n_block","n_trialIdx","f_timing_condition","n_scheduled_delay","n_trial_start_time","n_rewarded_time_fin","n_sell_time_fin","n_time_waited_fin","RT_fin","n_trial_earnings_fin","n_total_earnings_fin","keypress_times"
"1","R_x8Wn3TWbmk2dw7n","standard","1","1","LP","0.661783713916415","0.001","0.675","1.326","1.325","0.651","3","3",""
"2","R_x8Wn3TWbmk2dw7n","standard","1","2","LP","30","2.342","32.347","32.68","30.338","0.333","3","6",""
"3","R_x8Wn3TWbmk2dw7n","standard","1","3","LP","30","33.697","63.715","64.03","30.333","0.315","3","9",""
"4","R_x8Wn3TWbmk2dw7n","standard","1","4","LP","5.5010771219302","65.042","70.551","70.949","5.907","0.398","3","12",""
"5","R_x8Wn3TWbmk2dw7n","standard","1","5","LP","19.8235243429556","71.952","91.783","92.111","20.159","0.328","3","15",""
"6","R_x8Wn3TWbmk2dw7n","standard","1","6","LP","8.51632916846187","93.121","101.645","102.015","8.894","0.37","3","18",""
"7","R_x8Wn3TWbmk2dw7n","standard","1","7","LP","5.5010771219302","103.03","108.534","108.887","5.857","0.353","3","21",""
"8","R_x8Wn3TWbmk2dw7n","standard","1","8","LP","2.15079707022835","109.899","112.068","112.425","2.526","0.357","3","24",""
"9","R_x8Wn3TWbmk2dw7n","standard","1","9","LP","19.8235243429556","113.436","133.262","133.577","20.141","0.315","3","27",""
"10","R_x8Wn3TWbmk2dw7n","standard","1","10","LP","8.51632916846187","134.588","143.123","143.496","8.908","0.373","3","30",""
"11","R_x8Wn3TWbmk2dw7n","standard","1","11","LP","1.25738905644119","144.505","145.765","146.207","1.702","0.442","3","33",""
"12","R_x8Wn3TWbmk2dw7n","standard","1","12","LP","5.5010771219302","147.208","152.711","153.085","5.877","0.374","3","36",""
"13","R_x8Wn3TWbmk2dw7n","standard","1","13","LP","0.264713485566566","154.097","154.379","NA","1.285","NA","0","36",""
"14","R_x8Wn3TWbmk2dw7n","standard","1","14","LP","5.5010771219302","156.383","161.887","162.248","5.865","0.361","3","39",""
"15","R_x8Wn3TWbmk2dw7n","standard","1","15","LP","2.15079707022835","163.269","165.42","165.767","2.498","0.347","3","42",""
"16","R_x8Wn3TWbmk2dw7n","standard","1","16","LP","5.5010771219302","166.788","172.308","172.65","5.862","0.342","3","45",""
"17","R_x8Wn3TWbmk2dw7n","standard","1","17","LP","1.25738905644119","173.661","174.939","175.227","1.566","0.288","3","48",""
"18","R_x8Wn3TWbmk2dw7n","standard","1","18","LP","3.49090909090909","176.249","179.754","180.047","3.798","0.293","3","51",""
"19","R_x8Wn3TWbmk2dw7n","standard","1","19","LP","1.25738905644119","181.062","182.334","182.769","1.707","0.435","3","54",""
"20","R_x8Wn3TWbmk2dw7n","standard","1","20","LP","3.49090909090909","183.785","187.278","187.606","3.821","0.328","3","57",""
"21","R_x8Wn3TWbmk2dw7n","standard","1","21","LP","8.51632916846187","188.619","197.143","197.509","8.89","0.366","3","60",""
"22","R_x8Wn3TWbmk2dw7n","standard","1","22","LP","0.264713485566566","198.511","198.794","199.485","0.974","0.691","3","63",""
"23","R_x8Wn3TWbmk2dw7n","standard","1","23","LP","13.0392072382594","200.495","213.554","213.869","13.374","0.315","3","66",""
"24","R_x8Wn3TWbmk2dw7n","standard","1","24","LP","19.8235243429556","214.889","234.718","235.07","20.181","0.352","3","66","348"
"25","R_x8Wn3TWbmk2dw7n","standard","1","25","LP","19.8235243429556","236.088","255.918","256.27","20.182","0.352","3","69",""
"26","R_x8Wn3TWbmk2dw7n","standard","1","26","LP","0.661783713916415","257.277","257.952","258.289","1.012","0.337","3","72",""
"27","R_x8Wn3TWbmk2dw7n","standard","1","27","LP","1.25738905644119","259.303","260.571","260.938","1.635","0.367","3","75",""
"28","R_x8Wn3TWbmk2dw7n","standard","1","28","LP","3.49090909090909","261.956","265.465","265.827","3.871","0.362","3","78",""
"29","R_x8Wn3TWbmk2dw7n","standard","1","29","LP","19.8235243429556","266.843","286.672","287.009","20.166","0.337","3","81",""
"30","R_x8Wn3TWbmk2dw7n","standard","1","30","LP","30","288.02","318.024","318.29","30.27","0.266","3","84",""
"31","R_x8Wn3TWbmk2dw7n","standard","1","31","LP","5.5010771219302","319.294","324.813","325.209","5.915","0.396","3","87",""
"32","R_x8Wn3TWbmk2dw7n","standard","1","32","LP","0.264713485566566","326.217","326.486","326.869","0.652","0.383","3","90",""
"33","R_x8Wn3TWbmk2dw7n","standard","1","33","LP","3.49090909090909","327.892","331.401","331.75","3.858","0.349","3","93",""
"34","R_x8Wn3TWbmk2dw7n","standard","1","34","LP","13.0392072382594","332.754","345.795","346.18","13.426","0.385","3","96",""
"35","R_x8Wn3TWbmk2dw7n","standard","1","35","LP","0.661783713916415","347.196","347.864","348.298","1.102","0.434","3","99",""
"36","R_x8Wn3TWbmk2dw7n","standard","1","36","LP","0.661783713916415","349.314","349.981","350.338","1.024","0.357","3","102",""
"37","R_x8Wn3TWbmk2dw7n","standard","1","37","LP","30","351.35","381.352","381.691","30.341","0.339","3","105",""
"38","R_x8Wn3TWbmk2dw7n","standard","1","38","LP","13.0392072382594","382.693","395.742","396.082","13.389","0.34","3","108",""
"39","R_x8Wn3TWbmk2dw7n","standard","1","39","LP","0.264713485566566","397.097","397.365","397.76","0.663","0.395","3","111",""
"40","R_x8Wn3TWbmk2dw7n","standard","1","40","LP","0.264713485566566","398.782","399.054","399.359","0.577","0.305","3","114",""
"41","R_x8Wn3TWbmk2dw7n","standard","1","41","LP","5.5010771219302","400.367","405.87","406.3","5.933","0.43","3","117",""
"42","R_x8Wn3TWbmk2dw7n","standard","1","42","LP","8.51632916846187","407.304","415.827","416.269","8.965","0.442","3","120",""
"43","R_x8Wn3TWbmk2dw7n","standard","1","43","LP","3.49090909090909","417.278","420.776","421.141","3.863","0.365","3","123",""
"44","R_x8Wn3TWbmk2dw7n","standard","1","44","LP","3.49090909090909","422.147","425.667","426.059","3.912","0.392","3","126",""
"45","R_x8Wn3TWbmk2dw7n","standard","1","45","LP","0.661783713916415","427.061","427.734","428.15","1.089","0.416","3","129",""
"46","R_x8Wn3TWbmk2dw7n","standard","1","46","LP","3.49090909090909","429.154","432.654","433.031","3.877","0.377","3","132",""
"47","R_x8Wn3TWbmk2dw7n","standard","1","47","LP","8.51632916846187","434.038","442.558","442.949","8.911","0.391","3","135",""
"48","R_x8Wn3TWbmk2dw7n","standard","1","48","LP","13.0392072382594","443.973","457.021","457.4","13.427","0.379","3","138",""
"49","R_x8Wn3TWbmk2dw7n","standard","1","49","LP","3.49090909090909","458.426","461.922","462.32","3.894","0.398","3","141",""
"50","R_x8Wn3TWbmk2dw7n","standard","1","50","LP","13.0392072382594","463.322","476.367","476.732","13.41","0.365","3","144",""
"51","R_x8Wn3TWbmk2dw7n","standard","1","51","LP","0.264713485566566","477.74","478.02","478.44","0.7","0.42","3","147",""
"52","R_x8Wn3TWbmk2dw7n","standard","1","52","LP","2.15079707022835","479.471","481.634","482.03","2.559","0.396","3","150",""
"53","R_x8Wn3TWbmk2dw7n","standard","1","53","LP","1.25738905644119","483.041","484.308","484.701","1.66","0.393","3","153",""
"54","R_x8Wn3TWbmk2dw7n","standard","1","54","LP","8.51632916846187","485.711","494.231","494.602","8.891","0.371","3","156",""
"55","R_x8Wn3TWbmk2dw7n","standard","1","55","LP","0.264713485566566","495.614","495.898","496.23","0.616","0.332","3","159",""
"56","R_x8Wn3TWbmk2dw7n","standard","1","56","LP","0.264713485566566","497.243","497.515","497.87","0.627","0.355","3","162",""
"57","R_x8Wn3TWbmk2dw7n","standard","1","57","LP","3.49090909090909","498.884","502.386","502.772","3.888","0.386","3","165",""
"58","R_x8Wn3TWbmk2dw7n","standard","1","58","LP","19.8235243429556","503.787","523.617","523.982","20.195","0.365","3","168",""
"59","R_x8Wn3TWbmk2dw7n","standard","1","59","LP","30","525.001","555.007","555.344","30.343","0.337","3","171",""
"60","R_x8Wn3TWbmk2dw7n","standard","1","60","LP","19.8235243429556","556.348","576.187","576.542","20.194","0.355","3","174",""
"61","R_x8Wn3TWbmk2dw7n","standard","1","61","LP","8.51632916846187","577.553","586.078","586.46","8.907","0.382","3","177",""
"62","R_x8Wn3TWbmk2dw7n","standard","1","62","LP","8.51632916846187","587.478","596.004","596.324","8.846","0.32","3","180",""
"63","R_x8Wn3TWbmk2dw7n","standard","1","63","LP","8.51632916846187","597.331","605.858","606.323","8.992","0.465","3","183",""
"64","R_x8Wn3TWbmk2dw7n","standard","1","64","LP","1.25738905644119","607.326","608.609","609.224","1.898","0.615","3","186",""
"65","R_x8Wn3TWbmk2dw7n","standard","1","65","LP","19.8235243429556","610.255","630.091","630.445","20.19","0.354","3","189",""
"66","R_x8Wn3TWbmk2dw7n","standard","1","66","LP","3.49090909090909","631.459","634.961","635.342","3.883","0.381","3","192",""
"67","R_x8Wn3TWbmk2dw7n","standard","1","67","LP","19.8235243429556","636.35","656.192","656.594","20.244","0.402","3","195",""
"68","R_x8Wn3TWbmk2dw7n","standard","1","68","LP","3.49090909090909","657.598","661.094","661.522","3.924","0.428","3","198",""
"69","R_x8Wn3TWbmk2dw7n","standard","1","69","LP","19.8235243429556","662.541","682.377","682.765","20.224","0.388","3","201",""
"70","R_x8Wn3TWbmk2dw7n","standard","1","70","LP","13.0392072382594","683.778","696.82","697.195","13.417","0.375","3","204",""
"71","R_x8Wn3TWbmk2dw7n","standard","1","71","LP","30","698.205","728.206","728.632","30.427","0.426","3","207",""
"72","R_x8Wn3TWbmk2dw7n","standard","1","72","LP","5.5010771219302","729.643","735.146","735.553","5.91","0.407","3","210",""
"73","R_x8Wn3TWbmk2dw7n","standard","1","73","LP","19.8235243429556","736.564","756.394","756.775","20.211","0.381","3","213",""
"74","R_x8Wn3TWbmk2dw7n","standard","1","74","LP","0.661783713916415","757.782","758.446","758.915","1.133","0.469","3","216",""
"75","R_x8Wn3TWbmk2dw7n","standard","1","75","LP","1.25738905644119","759.925","761.196","761.584","1.659","0.388","3","219",""
"76","R_x8Wn3TWbmk2dw7n","standard","1","76","LP","30","762.589","792.614","792.966","30.377","0.352","3","222",""
"77","R_x8Wn3TWbmk2dw7n","standard","1","77","LP","1.25738905644119","793.971","795.24","795.585","1.614","0.345","3","225",""
"78","R_x8Wn3TWbmk2dw7n","standard","1","78","LP","13.0392072382594","796.606","809.648","810.055","13.449","0.407","3","228",""
"79","R_x8Wn3TWbmk2dw7n","standard","1","79","LP","5.5010771219302","811.066","816.569","817.034","5.968","0.465","3","231",""
"80","R_x8Wn3TWbmk2dw7n","standard","1","80","LP","3.49090909090909","818.04","821.542","822.065","4.025","0.523","3","234",""
"81","R_x8Wn3TWbmk2dw7n","standard","1","81","LP","3.49090909090909","823.071","826.575","826.984","3.913","0.409","3","237",""
"82","R_x8Wn3TWbmk2dw7n","standard","1","82","LP","30","827.99","857.996","858.377","30.387","0.381","3","240",""
"83","R_x8Wn3TWbmk2dw7n","standard","1","83","LP","1.25738905644119","859.382","860.648","861.016","1.634","0.368","3","243",""
"84","R_x8Wn3TWbmk2dw7n","standard","1","84","LP","30","862.018","892.019","892.386","30.368","0.367","3","246",""
"85","R_x8Wn3TWbmk2dw7n","standard","1","85","LP","3.49090909090909","893.39","896.89","897.295","3.905","0.405","3","249",""
"86","R_x8Wn3TWbmk2dw7n","standard","2","1","LP","0.264713485566566","0","0.278","0.886","0.886","0.608","3","255",NA
"87","R_x8Wn3TWbmk2dw7n","standard","2","2","LP","0.661783713916415","1.895","2.568","3.015","1.12","0.447","3","258",NA
"88","R_x8Wn3TWbmk2dw7n","standard","2","3","LP","13.0392072382594","4.017","17.058","17.428","13.411","0.37","3","261",NA
"89","R_x8Wn3TWbmk2dw7n","standard","2","4","LP","1.25738905644119","18.442","19.707","20.154","1.712","0.447","3","264",NA
"90","R_x8Wn3TWbmk2dw7n","standard","2","5","LP","1.25738905644119","21.158","22.428","22.814","1.656","0.386","3","267",NA
"91","R_x8Wn3TWbmk2dw7n","standard","2","6","LP","8.51632916846187","23.839","32.37","32.855","9.016","0.485","3","270",NA
"92","R_x8Wn3TWbmk2dw7n","standard","2","7","LP","1.25738905644119","33.863","35.137","35.545","1.682","0.408","3","273",NA
"93","R_x8Wn3TWbmk2dw7n","standard","2","8","LP","8.51632916846187","36.55","NaN","44.197","7.647","NaN","0","273",NA
"94","R_x8Wn3TWbmk2dw7n","standard","2","9","LP","0.264713485566566","45.199","45.477","45.855","0.656","0.378","3","276",NA
"95","R_x8Wn3TWbmk2dw7n","standard","2","10","LP","0.661783713916415","46.877","47.547","48.064","1.187","0.517","3","279",NA
"96","R_x8Wn3TWbmk2dw7n","standard","2","11","LP","30","49.079","NaN","54.927","5.848","NaN","0","279",NA
"97","R_x8Wn3TWbmk2dw7n","standard","2","12","LP","5.5010771219302","55.934","61.438","61.815","5.881","0.377","3","282",NA
"98","R_x8Wn3TWbmk2dw7n","standard","2","13","LP","13.0392072382594","62.819","NaN","70.677","7.858","NaN","0","282",NA
"99","R_x8Wn3TWbmk2dw7n","standard","2","14","LP","8.51632916846187","71.694","NaN","79.955","8.261","NaN","0","282",NA
"100","R_x8Wn3TWbmk2dw7n","standard","2","15","LP","1.25738905644119","80.961","82.219","82.637","1.676","0.418","3","285",NA
"101","R_x8Wn3TWbmk2dw7n","standard","2","16","LP","8.51632916846187","83.652","NaN","91.145","7.493","NaN","0","285",NA
"102","R_x8Wn3TWbmk2dw7n","standard","2","17","LP","13.0392072382594","92.158","NaN","101.388","9.23","NaN","0","285",NA
"103","R_x8Wn3TWbmk2dw7n","standard","2","18","LP","30","102.399","NaN","111.588","9.189","NaN","0","285",NA
"104","R_x8Wn3TWbmk2dw7n","standard","2","19","LP","19.8235243429556","112.605","132.436","132.968","20.363","0.532","3","288",NA
"105","R_x8Wn3TWbmk2dw7n","standard","2","20","LP","1.25738905644119","133.971","135.239","135.596","1.625","0.357","3","291",NA
"106","R_x8Wn3TWbmk2dw7n","standard","2","21","LP","3.49090909090909","136.613","140.112","140.475","3.862","0.363","3","294",NA
"107","R_x8Wn3TWbmk2dw7n","standard","2","22","LP","13.0392072382594","141.491","154.535","154.989","13.498","0.454","3","297",NA
"108","R_x8Wn3TWbmk2dw7n","standard","2","23","LP","19.8235243429556","155.995","175.833","176.289","20.294","0.456","3","300",NA
"109","R_x8Wn3TWbmk2dw7n","standard","2","24","LP","1.25738905644119","177.3","178.566","178.987","1.687","0.421","3","303",NA
"110","R_x8Wn3TWbmk2dw7n","standard","2","25","LP","5.5010771219302","180.002","NaN","183.107","3.105","NaN","0","303",NA
"111","R_x8Wn3TWbmk2dw7n","standard","2","26","LP","3.49090909090909","184.122","NaN","187.319","3.197","NaN","0","303",NA
"112","R_x8Wn3TWbmk2dw7n","standard","2","27","LP","0.661783713916415","188.326","188.99","189.497","1.171","0.507","3","306",NA
"113","R_x8Wn3TWbmk2dw7n","standard","2","28","LP","0.661783713916415","190.512","191.176","191.577","1.065","0.401","3","309",NA
"114","R_x8Wn3TWbmk2dw7n","standard","2","29","LP","13.0392072382594","192.594","NaN","195.459","2.865","NaN","0","309",NA
"115","R_x8Wn3TWbmk2dw7n","standard","2","30","LP","30","196.464","NaN","199.559","3.095","NaN","0","309",NA
"116","R_x8Wn3TWbmk2dw7n","standard","2","31","LP","1.25738905644119","200.567","201.831","202.338","1.771","0.507","3","312",NA
"117","R_x8Wn3TWbmk2dw7n","standard","2","32","LP","0.264713485566566","203.35","203.617","204.067","0.717","0.45","3","315",NA
"118","R_x8Wn3TWbmk2dw7n","standard","2","33","LP","30","205.086","NaN","208.137","3.051","NaN","0","315",NA
"119","R_x8Wn3TWbmk2dw7n","standard","2","34","LP","3.49090909090909","209.14","NaN","212.559","3.419","NaN","0","315",NA
"120","R_x8Wn3TWbmk2dw7n","standard","2","35","LP","13.0392072382594","213.574","NaN","216.526","2.952","NaN","0","315",NA
"121","R_x8Wn3TWbmk2dw7n","standard","2","36","LP","1.25738905644119","217.541","218.81","219.248","1.707","0.438","3","318",NA
"122","R_x8Wn3TWbmk2dw7n","standard","2","37","LP","1.25738905644119","220.263","221.523","222.029","1.766","0.506","3","321",NA
"123","R_x8Wn3TWbmk2dw7n","standard","2","38","LP","2.15079707022835","223.034","225.199","225.709","2.675","0.51","3","324",NA
"124","R_x8Wn3TWbmk2dw7n","standard","2","39","LP","0.264713485566566","226.715","226.983","227.538","0.823","0.555","3","327",NA
"125","R_x8Wn3TWbmk2dw7n","standard","2","40","LP","13.0392072382594","228.552","NaN","232.317","3.765","NaN","0","327",NA
"126","R_x8Wn3TWbmk2dw7n","standard","2","41","LP","8.51632916846187","233.324","NaN","236.919","3.595","NaN","0","327",NA
"127","R_x8Wn3TWbmk2dw7n","standard","2","42","LP","1.25738905644119","237.921","239.192","239.598","1.677","0.406","3","330",NA
"128","R_x8Wn3TWbmk2dw7n","standard","2","43","LP","8.51632916846187","240.61","NaN","244.018","3.408","NaN","0","330",NA
"129","R_x8Wn3TWbmk2dw7n","standard","2","44","LP","3.49090909090909","245.033","248.525","248.73","3.697","0.205","3","333",NA
"130","R_x8Wn3TWbmk2dw7n","standard","2","45","LP","30","249.734","NaN","254.019","4.285","NaN","0","333",NA
"131","R_x8Wn3TWbmk2dw7n","standard","2","46","LP","0.264713485566566","255.019","255.287","255.728","0.709","0.441","3","336",NA
"132","R_x8Wn3TWbmk2dw7n","standard","2","47","LP","5.5010771219302","256.739","NaN","260.67","3.931","NaN","0","336",NA
"133","R_x8Wn3TWbmk2dw7n","standard","2","48","LP","2.15079707022835","261.691","263.844","264.248","2.557","0.404","3","339",NA
"134","R_x8Wn3TWbmk2dw7n","standard","2","49","LP","0.264713485566566","265.254","265.519","266.008","0.754","0.489","3","342",NA
"135","R_x8Wn3TWbmk2dw7n","standard","2","50","LP","0.661783713916415","267.01","267.679","268.049","1.039","0.37","3","345",NA
"136","R_x8Wn3TWbmk2dw7n","standard","2","51","LP","2.15079707022835","269.061","271.222","271.69","2.629","0.468","3","348",NA
"137","R_x8Wn3TWbmk2dw7n","standard","2","52","LP","30","272.714","NaN","276.488","3.774","NaN","0","348",NA
"138","R_x8Wn3TWbmk2dw7n","standard","2","53","LP","0.264713485566566","277.5","277.77","278.239","0.739","0.469","3","351",NA
"139","R_x8Wn3TWbmk2dw7n","standard","2","54","LP","19.8235243429556","279.253","NaN","283.389","4.136","NaN","0","351",NA
"140","R_x8Wn3TWbmk2dw7n","standard","2","55","LP","0.264713485566566","284.391","284.666","285.077","0.686","0.411","3","354",NA
"141","R_x8Wn3TWbmk2dw7n","standard","2","56","LP","13.0392072382594","286.089","NaN","289.719","3.63","NaN","0","354",NA
"142","R_x8Wn3TWbmk2dw7n","standard","2","57","LP","30","290.729","NaN","294.38","3.651","NaN","0","354",NA
"143","R_x8Wn3TWbmk2dw7n","standard","2","58","LP","0.661783713916415","295.396","296.063","296.469","1.073","0.406","3","357",NA
"144","R_x8Wn3TWbmk2dw7n","standard","2","59","LP","13.0392072382594","297.475","NaN","300.878","3.403","NaN","0","357",NA
"145","R_x8Wn3TWbmk2dw7n","standard","2","60","LP","13.0392072382594","301.913","NaN","305.99","4.077","NaN","0","357",NA
"146","R_x8Wn3TWbmk2dw7n","standard","2","61","LP","3.49090909090909","307.004","310.507","310.548","3.544","0.041","3","360",NA
"147","R_x8Wn3TWbmk2dw7n","standard","2","62","LP","1.25738905644119","311.551","312.811","313.258","1.707","0.447","3","363",NA
"148","R_x8Wn3TWbmk2dw7n","standard","2","63","LP","13.0392072382594","314.269","NaN","317.811","3.542","NaN","0","363",NA
"149","R_x8Wn3TWbmk2dw7n","standard","2","64","LP","8.51632916846187","318.828","NaN","322.269","3.441","NaN","0","363",NA
"150","R_x8Wn3TWbmk2dw7n","standard","2","65","LP","1.25738905644119","323.27","324.539","324.97","1.7","0.431","3","366",NA
"151","R_x8Wn3TWbmk2dw7n","standard","2","66","LP","0.661783713916415","325.998","326.668","327.069","1.071","0.401","3","369",NA
"152","R_x8Wn3TWbmk2dw7n","standard","2","67","LP","13.0392072382594","328.071","NaN","331.321","3.25","NaN","0","369",NA
"153","R_x8Wn3TWbmk2dw7n","standard","2","68","LP","19.8235243429556","332.326","NaN","335.759","3.433","NaN","0","369",NA
"154","R_x8Wn3TWbmk2dw7n","standard","2","69","LP","19.8235243429556","336.773","NaN","340.099","3.326","NaN","0","369",NA
"155","R_x8Wn3TWbmk2dw7n","standard","2","70","LP","13.0392072382594","341.11","NaN","344.801","3.691","NaN","0","369",NA
"156","R_x8Wn3TWbmk2dw7n","standard","2","71","LP","0.264713485566566","345.815","346.1","346.539","0.724","0.439","3","372",NA
"157","R_x8Wn3TWbmk2dw7n","standard","2","72","LP","13.0392072382594","347.548","NaN","351.259","3.711","NaN","0","372",NA
"158","R_x8Wn3TWbmk2dw7n","standard","2","73","LP","8.51632916846187","352.271","NaN","354.49","2.219","NaN","0","372",NA
"159","R_x8Wn3TWbmk2dw7n","standard","2","74","LP","1.25738905644119","355.511","356.788","357.228","1.717","0.44","3","375",NA
"160","R_x8Wn3TWbmk2dw7n","standard","2","75","LP","0.264713485566566","358.242","358.507","359.16","0.918","0.653","3","378",NA
"161","R_x8Wn3TWbmk2dw7n","standard","2","76","LP","19.8235243429556","360.173","NaN","362.609","2.436","NaN","0","378",NA
"162","R_x8Wn3TWbmk2dw7n","standard","2","77","LP","3.49090909090909","363.61","NaN","366.219","2.609","NaN","0","378",NA
"163","R_x8Wn3TWbmk2dw7n","standard","2","78","LP","1.25738905644119","367.231","368.497","368.941","1.71","0.444","3","381",NA
"164","R_x8Wn3TWbmk2dw7n","standard","2","79","LP","3.49090909090909","369.952","NaN","372.199","2.247","NaN","0","381",NA
"165","R_x8Wn3TWbmk2dw7n","standard","2","80","LP","0.661783713916415","373.217","373.9","374.379","1.162","0.479","3","384",NA
"166","R_x8Wn3TWbmk2dw7n","standard","2","81","LP","0.661783713916415","375.384","376.053","376.441","1.057","0.388","3","387",NA
"167","R_x8Wn3TWbmk2dw7n","standard","2","82","LP","5.5010771219302","377.446","NaN","379.551","2.105","NaN","0","387",NA
"168","R_x8Wn3TWbmk2dw7n","standard","2","83","LP","8.51632916846187","380.573","NaN","383.257","2.684","NaN","0","387",NA
"169","R_x8Wn3TWbmk2dw7n","standard","2","84","LP","8.51632916846187","384.275","NaN","386.489","2.214","NaN","0","387",NA
"170","R_x8Wn3TWbmk2dw7n","standard","2","85","LP","1.25738905644119","387.512","388.779","389.16","1.648","0.381","3","390",NA
"171","R_x8Wn3TWbmk2dw7n","standard","2","86","LP","5.5010771219302","390.164","NaN","392.492","2.328","NaN","0","390",NA
"172","R_x8Wn3TWbmk2dw7n","standard","2","87","LP","0.264713485566566","393.495","393.767","394.239","0.744","0.472","3","393",NA
"173","R_x8Wn3TWbmk2dw7n","standard","2","88","LP","30","395.239","NaN","397.64","2.401","NaN","0","393",NA
"174","R_x8Wn3TWbmk2dw7n","standard","2","89","LP","13.0392072382594","398.653","NaN","401.341","2.688","NaN","0","393",NA
"175","R_x8Wn3TWbmk2dw7n","standard","2","90","LP","8.51632916846187","402.356","NaN","404.651","2.295","NaN","0","393",NA
"176","R_x8Wn3TWbmk2dw7n","standard","2","91","LP","0.661783713916415","405.656","406.327","406.71","1.054","0.383","3","396",NA
"177","R_x8Wn3TWbmk2dw7n","standard","2","92","LP","13.0392072382594","407.712","NaN","410.231","2.519","NaN","0","396",NA
"178","R_x8Wn3TWbmk2dw7n","standard","2","93","LP","19.8235243429556","411.245","NaN","413.7","2.455","NaN","0","396",NA
"179","R_x8Wn3TWbmk2dw7n","standard","2","94","LP","3.49090909090909","414.714","NaN","417.203","2.489","NaN","0","396",NA
"180","R_x8Wn3TWbmk2dw7n","standard","2","95","LP","30","418.22","NaN","420.841","2.621","NaN","0","396",NA
"181","R_x8Wn3TWbmk2dw7n","standard","2","96","LP","8.51632916846187","421.851","NaN","424.1","2.249","NaN","0","396",NA
"182","R_x8Wn3TWbmk2dw7n","standard","2","97","LP","0.264713485566566","425.103","425.386","425.83","0.727","0.444","3","399",NA
"183","R_x8Wn3TWbmk2dw7n","standard","2","98","LP","19.8235243429556","426.854","NaN","429.752","2.898","NaN","0","399",NA
"184","R_x8Wn3TWbmk2dw7n","standard","2","99","LP","2.15079707022835","430.759","432.91","433.38","2.621","0.47","3","402",NA
"185","R_x8Wn3TWbmk2dw7n","standard","2","100","LP","13.0392072382594","434.394","NaN","437.36","2.966","NaN","0","402",NA
"186","R_x8Wn3TWbmk2dw7n","standard","2","101","LP","3.49090909090909","438.379","NaN","441.132","2.753","NaN","0","402",NA
"187","R_x8Wn3TWbmk2dw7n","standard","2","102","LP","8.51632916846187","442.134","NaN","444.18","2.046","NaN","0","402",NA
"188","R_x8Wn3TWbmk2dw7n","standard","2","103","LP","5.5010771219302","445.185","NaN","447.82","2.635","NaN","0","402",NA
"189","R_x8Wn3TWbmk2dw7n","standard","2","104","LP","5.5010771219302","448.822","NaN","451.162","2.34","NaN","0","402",NA
"190","R_x8Wn3TWbmk2dw7n","standard","2","105","LP","8.51632916846187","452.172","NaN","454.53","2.358","NaN","0","402",NA
"191","R_x8Wn3TWbmk2dw7n","standard","2","106","LP","8.51632916846187","455.536","NaN","457.93","2.394","NaN","0","402",NA
"192","R_x8Wn3TWbmk2dw7n","standard","2","107","LP","3.49090909090909","458.945","NaN","461.592","2.647","NaN","0","402",NA
"193","R_x8Wn3TWbmk2dw7n","standard","2","108","LP","13.0392072382594","462.613","NaN","465.83","3.217","NaN","0","402",NA
"194","R_x8Wn3TWbmk2dw7n","standard","2","109","LP","30","466.849","NaN","469.721","2.872","NaN","0","402",NA
"195","R_x8Wn3TWbmk2dw7n","standard","2","110","LP","0.661783713916415","470.734","471.404","471.863","1.129","0.459","3","405",NA
"196","R_x8Wn3TWbmk2dw7n","standard","2","111","LP","5.5010771219302","472.884","NaN","475.601","2.717","NaN","0","405",NA
"197","R_x8Wn3TWbmk2dw7n","standard","2","112","LP","19.8235243429556","476.623","NaN","478.651","2.028","NaN","0","405",NA
"198","R_x8Wn3TWbmk2dw7n","standard","2","113","LP","0.661783713916415","479.656","480.329","480.821","1.165","0.492","3","408",NA
"199","R_x8Wn3TWbmk2dw7n","standard","2","114","LP","2.15079707022835","481.837","NaN","483.953","2.116","NaN","0","408",NA
"200","R_x8Wn3TWbmk2dw7n","standard","2","115","LP","3.49090909090909","484.963","NaN","487.411","2.448","NaN","0","408",NA
"201","R_x8Wn3TWbmk2dw7n","standard","2","116","LP","0.264713485566566","488.422","488.709","489.141","0.719","0.432","3","411",NA
"202","R_x8Wn3TWbmk2dw7n","standard","2","117","LP","8.51632916846187","490.145","NaN","492.641","2.496","NaN","0","411",NA
"203","R_x8Wn3TWbmk2dw7n","standard","2","118","LP","1.25738905644119","493.651","494.918","495.373","1.722","0.455","3","414",NA
"204","R_x8Wn3TWbmk2dw7n","standard","2","119","LP","0.661783713916415","496.385","497.053","497.481","1.096","0.428","3","417",NA
"205","R_x8Wn3TWbmk2dw7n","standard","2","120","LP","2.15079707022835","498.488","500.648","501.001","2.513","0.353","3","420",NA
"206","R_x8Wn3TWbmk2dw7n","standard","2","121","LP","5.5010771219302","502.02","NaN","504.971","2.951","NaN","0","420",NA
"207","R_x8Wn3TWbmk2dw7n","standard","2","122","LP","1.25738905644119","505.977","507.244","507.703","1.726","0.459","3","423",NA
"208","R_x8Wn3TWbmk2dw7n","standard","2","123","LP","0.264713485566566","508.71","508.987","509.412","0.702","0.425","3","426",NA
"209","R_x8Wn3TWbmk2dw7n","standard","2","124","LP","3.49090909090909","510.414","NaN","512.991","2.577","NaN","0","426",NA
"210","R_x8Wn3TWbmk2dw7n","standard","2","125","LP","2.15079707022835","514.003","516.158","516.521","2.518","0.363","3","429",NA
"211","R_x8Wn3TWbmk2dw7n","standard","2","126","LP","1.25738905644119","517.534","518.802","519.253","1.719","0.451","3","432",NA
"212","R_x8Wn3TWbmk2dw7n","standard","2","127","LP","8.51632916846187","520.27","NaN","523.093","2.823","NaN","0","432",NA
"213","R_x8Wn3TWbmk2dw7n","standard","2","128","LP","2.15079707022835","524.105","526.272","526.721","2.616","0.449","3","435",NA
"214","R_x8Wn3TWbmk2dw7n","standard","2","129","LP","5.5010771219302","527.726","NaN","530.433","2.707","NaN","0","435",NA
"215","R_x8Wn3TWbmk2dw7n","standard","2","130","LP","0.264713485566566","531.444","531.709","532.171","0.727","0.462","3","438",NA
"216","R_x8Wn3TWbmk2dw7n","standard","2","131","LP","0.661783713916415","533.178","533.854","534.35","1.172","0.496","3","441",NA
"217","R_x8Wn3TWbmk2dw7n","standard","2","132","LP","2.15079707022835","535.361","537.515","537.921","2.56","0.406","3","444",NA
"218","R_x8Wn3TWbmk2dw7n","standard","2","133","LP","19.8235243429556","538.933","NaN","541.344","2.411","NaN","0","444",NA
"219","R_x8Wn3TWbmk2dw7n","standard","2","134","LP","0.264713485566566","542.352","542.617","543.142","0.79","0.525","3","447",NA
"220","R_x8Wn3TWbmk2dw7n","standard","2","135","LP","0.264713485566566","544.153","544.422","544.853","0.7","0.431","3","450",NA
"221","R_x8Wn3TWbmk2dw7n","standard","2","136","LP","3.49090909090909","545.87","NaN","548.112","2.242","NaN","0","450",NA
"222","R_x8Wn3TWbmk2dw7n","standard","2","137","LP","2.15079707022835","549.128","551.289","551.293","2.165","0.004","3","453",NA
"223","R_x8Wn3TWbmk2dw7n","standard","2","138","LP","19.8235243429556","552.308","NaN","555.115","2.807","NaN","0","453",NA
"224","R_x8Wn3TWbmk2dw7n","standard","2","139","LP","5.5010771219302","556.118","NaN","558.822","2.704","NaN","0","453",NA
"225","R_x8Wn3TWbmk2dw7n","standard","2","140","LP","30","559.833","NaN","562.372","2.539","NaN","0","453",NA
"226","R_x8Wn3TWbmk2dw7n","standard","2","141","LP","0.264713485566566","563.381","563.648","564.032","0.651","0.384","3","456",NA
"227","R_x8Wn3TWbmk2dw7n","standard","2","142","LP","19.8235243429556","565.05","NaN","567.044","1.994","NaN","0","456",NA
"228","R_x8Wn3TWbmk2dw7n","standard","2","143","LP","5.5010771219302","568.053","NaN","570.292","2.239","NaN","0","456",NA
"229","R_x8Wn3TWbmk2dw7n","standard","2","144","LP","3.49090909090909","571.303","NaN","573.742","2.439","NaN","0","456",NA
"230","R_x8Wn3TWbmk2dw7n","standard","2","145","LP","2.15079707022835","574.757","576.909","577.084","2.327","0.175","3","459",NA
"231","R_x8Wn3TWbmk2dw7n","standard","2","146","LP","5.5010771219302","578.091","NaN","580.692","2.601","NaN","0","459",NA
"232","R_x8Wn3TWbmk2dw7n","standard","2","147","LP","5.5010771219302","581.724","NaN","584.502","2.778","NaN","0","459",NA
"233","R_x8Wn3TWbmk2dw7n","standard","2","148","LP","30","585.513","NaN","588.303","2.79","NaN","0","459",NA
"234","R_x8Wn3TWbmk2dw7n","standard","2","149","LP","2.15079707022835","589.318","591.469","591.862","2.544","0.393","3","462",NA
"235","R_x8Wn3TWbmk2dw7n","standard","2","150","LP","13.0392072382594","592.884","NaN","595.176","2.292","NaN","0","462",NA
"236","R_x8Wn3TWbmk2dw7n","standard","2","151","LP","5.5010771219302","596.183","NaN","597.95","1.767","NaN","0","462",NA
