"","subject_id","condition","n_block","n_trialIdx","f_timing_condition","n_scheduled_delay","n_trial_start_time","n_rewarded_time_fin","n_sell_time_fin","n_time_waited_fin","RT_fin","n_trial_earnings_fin","n_total_earnings_fin","keypress_times"
"1","R_xauXWEKQIXtT9Yt","standard","1","1","HP","20","0.005","20.014","20.729","20.724","0.715","3","3",""
"2","R_xauXWEKQIXtT9Yt","standard","1","2","HP","6","21.74","27.748","28.416","6.676","0.668","3","6",""
"3","R_xauXWEKQIXtT9Yt","standard","1","3","HP","16","29.418","45.426","46.05","16.632","0.624","3","9",""
"4","R_xauXWEKQIXtT9Yt","standard","1","4","HP","10","47.058","57.066","57.725","10.667","0.659","3","12",""
"5","R_xauXWEKQIXtT9Yt","standard","1","5","HP","8","58.73","66.738","67.372","8.642","0.634","3","15",""
"6","R_xauXWEKQIXtT9Yt","standard","1","6","HP","4","68.377","72.386","73.106","4.729","0.72","3","18",""
"7","R_xauXWEKQIXtT9Yt","standard","1","7","HP","10","74.11","84.113","84.825","10.715","0.712","3","21",""
"8","R_xauXWEKQIXtT9Yt","standard","1","8","HP","4","85.826","89.834","90.453","4.627","0.619","3","24",""
"9","R_xauXWEKQIXtT9Yt","standard","1","9","HP","14","91.458","105.466","106.196","14.738","0.73","3","27",""
"10","R_xauXWEKQIXtT9Yt","standard","1","10","HP","12","107.202","119.209","119.847","12.645","0.638","3","30",""
"11","R_xauXWEKQIXtT9Yt","standard","1","11","HP","2","120.849","122.857","123.594","2.745","0.737","3","33",""
"12","R_xauXWEKQIXtT9Yt","standard","1","12","HP","20","124.603","144.61","145.209","20.606","0.599","3","36",""
"13","R_xauXWEKQIXtT9Yt","standard","1","13","HP","14","146.213","160.216","160.866","14.653","0.65","3","39",""
"14","R_xauXWEKQIXtT9Yt","standard","1","14","HP","20","161.874","181.889","182.524","20.65","0.635","3","42",""
"15","R_xauXWEKQIXtT9Yt","standard","1","15","HP","14","183.529","197.531","198.152","14.623","0.621","3","45",""
"16","R_xauXWEKQIXtT9Yt","standard","1","16","HP","14","199.161","213.169","213.791","14.63","0.622","3","48",""
"17","R_xauXWEKQIXtT9Yt","standard","1","17","HP","2","214.793","216.802","217.484","2.691","0.682","3","51",""
"18","R_xauXWEKQIXtT9Yt","standard","1","18","HP","10","218.491","228.498","229.137","10.646","0.639","3","54",""
"19","R_xauXWEKQIXtT9Yt","standard","1","19","HP","2","230.147","232.154","232.855","2.708","0.701","3","57",""
"20","R_xauXWEKQIXtT9Yt","standard","1","20","HP","8","233.857","241.865","242.491","8.634","0.626","3","60",""
"21","R_xauXWEKQIXtT9Yt","standard","1","21","HP","14","243.497","257.505","258.145","14.648","0.64","3","63",""
"22","R_xauXWEKQIXtT9Yt","standard","1","22","HP","18","259.154","277.161","277.839","18.685","0.678","3","66",""
"23","R_xauXWEKQIXtT9Yt","standard","1","23","HP","16","278.841","294.85","295.476","16.635","0.626","3","69",""
"24","R_xauXWEKQIXtT9Yt","standard","1","24","HP","2","296.481","298.49","299.133","2.652","0.643","3","72",""
"25","R_xauXWEKQIXtT9Yt","standard","1","25","HP","4","300.137","304.145","304.985","4.848","0.84","3","75",""
"26","R_xauXWEKQIXtT9Yt","standard","1","26","HP","6","305.994","312.002","312.68","6.686","0.678","3","78",""
"27","R_xauXWEKQIXtT9Yt","standard","1","27","HP","8","313.681","321.689","322.532","8.851","0.843","3","81",""
"28","R_xauXWEKQIXtT9Yt","standard","1","28","HP","10","323.538","333.545","334.187","10.649","0.642","3","84",""
"29","R_xauXWEKQIXtT9Yt","standard","1","29","HP","8","335.193","343.202","343.983","8.79","0.781","3","87",""
"30","R_xauXWEKQIXtT9Yt","standard","1","30","HP","6","344.988","350.993","351.708","6.72","0.715","3","90",""
"31","R_xauXWEKQIXtT9Yt","standard","1","31","HP","2","352.711","354.713","355.492","2.781","0.779","3","93",""
"32","R_xauXWEKQIXtT9Yt","standard","1","32","HP","10","356.499","366.505","367.116","10.617","0.611","3","96",""
"33","R_xauXWEKQIXtT9Yt","standard","1","33","HP","4","368.121","372.125","373.022","4.901","0.897","3","99",""
"34","R_xauXWEKQIXtT9Yt","standard","1","34","HP","16","374.023","390.025","390.647","16.624","0.622","3","102",""
"35","R_xauXWEKQIXtT9Yt","standard","1","35","HP","14","391.649","405.658","406.257","14.608","0.599","3","105",""
"36","R_xauXWEKQIXtT9Yt","standard","1","36","HP","14","407.266","421.274","421.876","14.61","0.602","3","108",""
"37","R_xauXWEKQIXtT9Yt","standard","1","37","HP","18","422.881","440.89","441.661","18.78","0.771","3","111",""
"38","R_xauXWEKQIXtT9Yt","standard","1","38","HP","12","442.665","454.673","455.311","12.646","0.638","3","114",""
"39","R_xauXWEKQIXtT9Yt","standard","1","39","HP","4","456.313","460.32","461.153","4.84","0.833","3","117",""
"40","R_xauXWEKQIXtT9Yt","standard","1","40","HP","8","462.162","470.169","470.73","8.568","0.561","3","120",""
"41","R_xauXWEKQIXtT9Yt","standard","1","41","HP","6","471.738","477.747","478.454","6.716","0.707","3","123",""
"42","R_xauXWEKQIXtT9Yt","standard","1","42","HP","12","479.459","491.467","492.097","12.638","0.63","3","126",""
"43","R_xauXWEKQIXtT9Yt","standard","1","43","HP","20","493.099","513.107","513.866","20.767","0.759","3","129",""
"44","R_xauXWEKQIXtT9Yt","standard","1","44","HP","8","514.875","522.897","523.517","8.642","0.62","3","132",""
"45","R_xauXWEKQIXtT9Yt","standard","1","45","HP","6","524.519","530.522","531.331","6.812","0.809","3","135",""
"46","R_xauXWEKQIXtT9Yt","standard","1","46","HP","18","532.339","550.346","550.976","18.637","0.63","3","138",""
"47","R_xauXWEKQIXtT9Yt","standard","1","47","HP","12","551.979","563.987","564.963","12.984","0.976","3","141",""
"48","R_xauXWEKQIXtT9Yt","standard","1","48","HP","6","565.972","571.978","572.677","6.705","0.699","3","144",""
"49","R_xauXWEKQIXtT9Yt","standard","1","49","HP","2","573.683","575.69","576.448","2.765","0.758","3","147",""
"50","R_xauXWEKQIXtT9Yt","standard","1","50","HP","10","577.451","587.459","588.06","10.609","0.601","3","150",""
"51","R_xauXWEKQIXtT9Yt","standard","1","51","HP","14","589.066","603.075","603.678","14.612","0.603","3","153",""
"52","R_xauXWEKQIXtT9Yt","standard","1","52","HP","12","604.683","616.691","617.365","12.682","0.674","3","156",""
"53","R_xauXWEKQIXtT9Yt","standard","1","53","HP","4","618.37","622.378","623.047","4.677","0.669","3","159",""
"54","R_xauXWEKQIXtT9Yt","standard","1","54","HP","16","624.052","640.058","640.734","16.682","0.676","3","162",""
"55","R_xauXWEKQIXtT9Yt","standard","1","55","HP","8","641.743","649.746","650.453","8.71","0.707","3","165",""
"56","R_xauXWEKQIXtT9Yt","standard","1","56","HP","14","651.459","665.467","666.091","14.632","0.624","3","168",""
"57","R_xauXWEKQIXtT9Yt","standard","1","57","HP","20","667.099","687.107","687.711","20.612","0.604","3","171",""
"58","R_xauXWEKQIXtT9Yt","standard","1","58","HP","10","688.714","698.716","699.425","10.711","0.709","3","174",""
"59","R_xauXWEKQIXtT9Yt","standard","1","59","HP","20","700.428","720.436","721.031","20.603","0.595","3","177",""
"60","R_xauXWEKQIXtT9Yt","standard","1","60","HP","20","722.035","742.043","742.654","20.619","0.611","3","180",""
"61","R_xauXWEKQIXtT9Yt","standard","1","61","HP","4","743.661","747.667","748.431","4.77","0.764","3","183",""
"62","R_xauXWEKQIXtT9Yt","standard","1","62","HP","2","749.435","751.443","NA","3.02","NA","0","183",""
"63","R_xauXWEKQIXtT9Yt","standard","1","63","HP","14","753.46","767.468","768.291","14.831","0.823","3","186",""
"64","R_xauXWEKQIXtT9Yt","standard","1","64","HP","12","769.3","781.307","781.958","12.658","0.651","3","189",""
"65","R_xauXWEKQIXtT9Yt","standard","1","65","HP","20","782.964","802.977","803.695","20.731","0.718","3","192",""
"66","R_xauXWEKQIXtT9Yt","standard","1","66","HP","20","804.7","824.708","825.417","20.717","0.709","3","195",""
"67","R_xauXWEKQIXtT9Yt","standard","1","67","HP","18","826.419","844.426","845.159","18.74","0.733","3","198",""
"68","R_xauXWEKQIXtT9Yt","standard","1","68","HP","20","846.164","866.173","866.895","20.731","0.722","3","201",""
"69","R_xauXWEKQIXtT9Yt","standard","1","69","HP","2","867.901","869.908","870.85","2.949","0.942","3","204",""
"70","R_xauXWEKQIXtT9Yt","standard","1","70","HP","14","871.852","885.86","886.502","14.65","0.642","3","207",""
"71","R_xauXWEKQIXtT9Yt","standard","1","71","HP","8","887.508","895.509","896.19","8.682","0.681","3","210",""
"72","R_xauXWEKQIXtT9Yt","standard","2","1","LP","5.5010771219302","0","NaN","2.155","2.155","NaN","0","210",NA
"73","R_xauXWEKQIXtT9Yt","standard","2","2","LP","0.661783713916415","3.157","3.821",NA,"1.671",NA,"0","210",NA
"74","R_xauXWEKQIXtT9Yt","standard","2","3","LP","19.8235243429556","5.829","NaN","6.753","0.924","NaN","0","210",NA
"75","R_xauXWEKQIXtT9Yt","standard","2","4","LP","1.25738905644119","7.756","9.02","9.513","1.757","0.493","3","213",NA
"76","R_xauXWEKQIXtT9Yt","standard","2","5","LP","30","10.517","NaN","12.972","2.455","NaN","0","213",NA
"77","R_xauXWEKQIXtT9Yt","standard","2","6","LP","3.49090909090909","13.98","17.478","18.196","4.216","0.718","3","216",NA
"78","R_xauXWEKQIXtT9Yt","standard","2","7","LP","2.15079707022835","19.205","21.356","22.092","2.887","0.736","3","219",NA
"79","R_xauXWEKQIXtT9Yt","standard","2","8","LP","19.8235243429556","23.1","NaN","29.788","6.688","NaN","0","219",NA
"80","R_xauXWEKQIXtT9Yt","standard","2","9","LP","5.5010771219302","30.797","36.301","37.156","6.359","0.855","3","222",NA
"81","R_xauXWEKQIXtT9Yt","standard","2","10","LP","5.5010771219302","38.164","43.669","44.318","6.154","0.649","3","225",NA
"82","R_xauXWEKQIXtT9Yt","standard","2","11","LP","0.661783713916415","45.325","45.989",NA,"1.673",NA,"0","225",NA
"83","R_xauXWEKQIXtT9Yt","standard","2","12","LP","5.5010771219302","48.006","53.508","54.157","6.151","0.649","3","228",NA
"84","R_xauXWEKQIXtT9Yt","standard","2","13","LP","5.5010771219302","55.165","60.67","61.34","6.175","0.67","3","231",NA
"85","R_xauXWEKQIXtT9Yt","standard","2","14","LP","2.15079707022835","62.341","64.494","65.416","3.075","0.922","3","234",NA
"86","R_xauXWEKQIXtT9Yt","standard","2","15","LP","8.51632916846187","66.421","74.942",NA,"9.529",NA,"0","234",NA
"87","R_xauXWEKQIXtT9Yt","standard","2","16","LP","8.51632916846187","76.958","85.478","86.255","9.297","0.777","3","237",NA
"88","R_xauXWEKQIXtT9Yt","standard","2","17","LP","1.25738905644119","87.261","88.524",NA,"2.266",NA,"0","237",NA
"89","R_xauXWEKQIXtT9Yt","standard","2","18","LP","0.264713485566566","90.534","90.806","91.534","1","0.728","3","240",NA
"90","R_xauXWEKQIXtT9Yt","standard","2","19","LP","30","92.542","NaN","94.074","1.532","NaN","0","240",NA
"91","R_xauXWEKQIXtT9Yt","standard","2","20","LP","5.5010771219302","95.078","100.583","101.297","6.219","0.714","3","243",NA
"92","R_xauXWEKQIXtT9Yt","standard","2","21","LP","5.5010771219302","102.302","107.808","108.519","6.217","0.711","3","246",NA
"93","R_xauXWEKQIXtT9Yt","standard","2","22","LP","1.25738905644119","109.524","110.79",NA,"2.276",NA,"0","246",NA
"94","R_xauXWEKQIXtT9Yt","standard","2","23","LP","8.51632916846187","112.806","NaN","121.195","8.389","NaN","0","246",NA
"95","R_xauXWEKQIXtT9Yt","standard","2","24","LP","19.8235243429556","122.197","142.022",NA,"20.834",NA,"0","246",NA
"96","R_xauXWEKQIXtT9Yt","standard","2","25","LP","30","144.037","NaN","163.199","19.162","NaN","0","246",NA
"97","R_xauXWEKQIXtT9Yt","standard","2","26","LP","1.25738905644119","164.206","165.469",NA,"2.274",NA,"0","246",NA
"98","R_xauXWEKQIXtT9Yt","standard","2","27","LP","19.8235243429556","167.487","187.318","187.96","20.473","0.642","3","249",NA
"99","R_xauXWEKQIXtT9Yt","standard","2","28","LP","0.661783713916415","188.965","189.629",NA,"1.665",NA,"0","249",NA
"100","R_xauXWEKQIXtT9Yt","standard","2","29","LP","19.8235243429556","191.638","211.474","212.305","20.667","0.831","3","252",NA
"101","R_xauXWEKQIXtT9Yt","standard","2","30","LP","1.25738905644119","213.306","214.566",NA,"2.268",NA,"0","252",NA
"102","R_xauXWEKQIXtT9Yt","standard","2","31","LP","19.8235243429556","216.581","236.407","237.001","20.42","0.594","3","255",NA
"103","R_xauXWEKQIXtT9Yt","standard","2","32","LP","19.8235243429556","238.007","257.831","258.504","20.497","0.673","3","258",NA
"104","R_xauXWEKQIXtT9Yt","standard","2","33","LP","3.49090909090909","259.505","262.999","263.745","4.24","0.746","3","261",NA
"105","R_xauXWEKQIXtT9Yt","standard","2","34","LP","19.8235243429556","264.751","284.582","285.401","20.65","0.819","3","264",NA
"106","R_xauXWEKQIXtT9Yt","standard","2","35","LP","3.49090909090909","286.408","289.903","290.597","4.189","0.694","3","267",NA
"107","R_xauXWEKQIXtT9Yt","standard","2","36","LP","1.25738905644119","291.599","292.863","293.635","2.036","0.772","3","270",NA
"108","R_xauXWEKQIXtT9Yt","standard","2","37","LP","19.8235243429556","294.639","314.471","315.146","20.507","0.675","3","273",NA
"109","R_xauXWEKQIXtT9Yt","standard","2","38","LP","8.51632916846187","316.151","324.671","325.343","9.192","0.672","3","276",NA
"110","R_xauXWEKQIXtT9Yt","standard","2","39","LP","2.15079707022835","326.351","328.502","329.216","2.865","0.714","3","279",NA
"111","R_xauXWEKQIXtT9Yt","standard","2","40","LP","13.0392072382594","330.223","343.272","343.963","13.74","0.691","3","282",NA
"112","R_xauXWEKQIXtT9Yt","standard","2","41","LP","30","344.968","374.976","375.623","30.655","0.647","3","285",NA
"113","R_xauXWEKQIXtT9Yt","standard","2","42","LP","5.5010771219302","376.632","382.136","382.96","6.328","0.824","3","288",NA
"114","R_xauXWEKQIXtT9Yt","standard","2","43","LP","1.25738905644119","383.967","385.23","386.102","2.135","0.872","3","291",NA
"115","R_xauXWEKQIXtT9Yt","standard","2","44","LP","0.264713485566566","387.105","387.376","388.177","1.072","0.801","3","294",NA
"116","R_xauXWEKQIXtT9Yt","standard","2","45","LP","8.51632916846187","389.183","397.703","398.444","9.261","0.741","3","297",NA
"117","R_xauXWEKQIXtT9Yt","standard","2","46","LP","8.51632916846187","399.447","407.968","408.6","9.153","0.632","3","300",NA
"118","R_xauXWEKQIXtT9Yt","standard","2","47","LP","1.25738905644119","409.608","410.872","411.661","2.053","0.789","3","303",NA
"119","R_xauXWEKQIXtT9Yt","standard","2","48","LP","3.49090909090909","412.664","416.16","416.838","4.174","0.678","3","306",NA
"120","R_xauXWEKQIXtT9Yt","standard","2","49","LP","1.25738905644119","417.839","419.104","419.78","1.941","0.676","3","309",NA
"121","R_xauXWEKQIXtT9Yt","standard","2","50","LP","19.8235243429556","420.783","440.608","441.342","20.559","0.734","3","312",NA
"122","R_xauXWEKQIXtT9Yt","standard","2","51","LP","0.264713485566566","442.352","442.624","443.435","1.083","0.811","3","315",NA
"123","R_xauXWEKQIXtT9Yt","standard","2","52","LP","0.661783713916415","444.439","445.104","445.838","1.399","0.734","3","318",NA
"124","R_xauXWEKQIXtT9Yt","standard","2","53","LP","19.8235243429556","446.839","466.673","467.4","20.561","0.727","3","321",NA
"125","R_xauXWEKQIXtT9Yt","standard","2","54","LP","8.51632916846187","468.408","476.929","477.701","9.293","0.772","3","324",NA
"126","R_xauXWEKQIXtT9Yt","standard","2","55","LP","3.49090909090909","478.704","482.2","482.86","4.156","0.66","3","327",NA
"127","R_xauXWEKQIXtT9Yt","standard","2","56","LP","1.25738905644119","483.864","485.129","485.936","2.072","0.807","3","330",NA
"128","R_xauXWEKQIXtT9Yt","standard","2","57","LP","5.5010771219302","486.945","492.448","493.106","6.161","0.658","3","333",NA
"129","R_xauXWEKQIXtT9Yt","standard","2","58","LP","0.661783713916415","494.107","494.769","495.477","1.37","0.708","3","336",NA
"130","R_xauXWEKQIXtT9Yt","standard","2","59","LP","13.0392072382594","496.48","509.52","510.167","13.687","0.647","3","339",NA
"131","R_xauXWEKQIXtT9Yt","standard","2","60","LP","13.0392072382594","511.168","524.21","524.952","13.784","0.742","3","342",NA
"132","R_xauXWEKQIXtT9Yt","standard","2","61","LP","0.661783713916415","525.962","526.624","527.377","1.415","0.753","3","345",NA
"133","R_xauXWEKQIXtT9Yt","standard","2","62","LP","13.0392072382594","528.385","541.426","542.417","14.032","0.991","3","348",NA
"134","R_xauXWEKQIXtT9Yt","standard","2","63","LP","19.8235243429556","543.424","563.257","563.905","20.481","0.648","3","351",NA
"135","R_xauXWEKQIXtT9Yt","standard","2","64","LP","13.0392072382594","564.91","577.953","578.701","13.791","0.748","3","354",NA
"136","R_xauXWEKQIXtT9Yt","standard","2","65","LP","0.264713485566566","579.705","579.977",NA,"1.28",NA,"0","354",NA
